subid,Target,CorrectResponse,RESP,CRESP,Ort,Block,Trial,OnsetDelay,OnsetTime,RTTime,RT,ACC
Simon_mitTrigger_redblue-13-2,X,r,r,r,30,1,1,17,35560,36086,526,1
Simon_mitTrigger_redblue-13-2,X,r,r,r,30,1,2,16,36893,37174,281,1
Simon_mitTrigger_redblue-13-2,T,b,r,b,70,1,3,17,37977,38302,325,0
Simon_mitTrigger_redblue-13-2,T,b,b,b,30,1,4,17,39110,39550,440,1
Simon_mitTrigger_redblue-13-2,T,b,r,b,30,1,5,17,40360,40734,374,0
Simon_mitTrigger_redblue-13-2,T,b,b,b,30,1,6,17,41544,41934,390,1
Simon_mitTrigger_redblue-13-2,T,b,b,b,30,1,7,17,42744,43366,622,1
Simon_mitTrigger_redblue-13-2,X,r,b,r,30,1,8,16,44160,44430,270,0
Simon_mitTrigger_redblue-13-2,T,b,b,b,70,1,9,17,45227,45606,379,1
Simon_mitTrigger_redblue-13-2,T,b,b,b,30,1,10,17,46411,46878,467,1
Simon_mitTrigger_redblue-13-2,X,r,r,r,30,1,11,16,47677,48086,409,1
Simon_mitTrigger_redblue-13-2,X,r,r,r,70,1,12,17,48894,49246,352,1
Simon_mitTrigger_redblue-13-2,T,b,b,b,30,1,13,16,50044,50470,426,1
Simon_mitTrigger_redblue-13-2,X,r,r,r,70,1,14,17,51278,51543,265,1
Simon_mitTrigger_redblue-13-2,X,r,r,r,70,1,15,16,52344,52679,335,1
Simon_mitTrigger_redblue-13-2,X,r,r,r,70,1,16,17,53478,53775,297,1
Simon_mitTrigger_redblue-13-2,T,b,b,b,70,1,17,17,54578,55047,469,1
Simon_mitTrigger_redblue-13-2,X,r,r,r,30,1,18,17,55845,56343,498,1
Simon_mitTrigger_redblue-13-2,T,b,b,b,70,1,19,17,57145,57551,406,1
Simon_mitTrigger_redblue-13-2,X,r,r,r,70,1,20,17,58345,58687,342,1
Simon_mitTrigger_redblue-13-2,T,b,b,b,30,1,21,17,59495,59951,456,1
Simon_mitTrigger_redblue-13-2,T,b,b,b,30,1,22,17,60745,61119,374,1
Simon_mitTrigger_redblue-13-2,X,r,r,r,70,1,23,16,61928,62279,351,1
Simon_mitTrigger_redblue-13-2,X,r,r,r,30,1,24,17,63079,63487,408,1
Simon_mitTrigger_redblue-13-2,X,r,r,r,70,1,25,16,64295,64671,376,1
Simon_mitTrigger_redblue-13-2,T,b,b,b,70,1,26,17,65479,65895,416,1
Simon_mitTrigger_redblue-13-2,X,r,r,r,70,1,27,16,66695,67407,712,1
Simon_mitTrigger_redblue-13-2,T,b,b,b,30,1,28,16,68212,68695,483,1
Simon_mitTrigger_redblue-13-2,X,r,r,r,70,1,29,17,69496,69799,303,1
Simon_mitTrigger_redblue-13-2,X,r,r,r,30,1,30,17,70596,70951,355,1
Simon_mitTrigger_redblue-13-2,T,b,b,b,30,1,31,17,71746,72087,341,1
Simon_mitTrigger_redblue-13-2,T,b,b,b,70,1,32,17,72896,73255,359,1
Simon_mitTrigger_redblue-13-2,T,b,b,b,30,1,33,17,74063,74399,336,1
Simon_mitTrigger_redblue-13-2,X,r,r,r,70,1,34,17,75196,75615,419,1
Simon_mitTrigger_redblue-13-2,X,r,r,r,70,1,35,17,76413,76695,282,1
Simon_mitTrigger_redblue-13-2,T,b,b,b,70,1,36,16,77496,77855,359,1
Simon_mitTrigger_redblue-13-2,X,r,r,r,30,1,37,17,78663,79095,432,1
Simon_mitTrigger_redblue-13-2,T,b,b,b,70,1,38,16,79896,80343,447,1
Simon_mitTrigger_redblue-13-2,T,b,b,b,70,1,39,17,81147,81623,476,1
Simon_mitTrigger_redblue-13-2,T,b,b,b,70,1,40,17,82430,82767,337,1
Simon_mitTrigger_redblue-13-2,T,b,b,b,30,1,41,16,83563,84519,956,1
Simon_mitTrigger_redblue-13-2,X,r,r,r,70,1,42,17,85314,85727,413,1
Simon_mitTrigger_redblue-13-2,X,r,r,r,30,1,43,16,86530,86927,397,1
Simon_mitTrigger_redblue-13-2,X,r,r,r,30,1,44,16,87730,88039,309,1
Simon_mitTrigger_redblue-13-2,X,r,r,r,30,1,45,17,88847,89231,384,1
Simon_mitTrigger_redblue-13-2,T,b,b,b,70,1,46,17,90031,90495,464,1
Simon_mitTrigger_redblue-13-2,X,r,r,r,30,1,47,16,91297,91679,382,1
Simon_mitTrigger_redblue-13-2,T,b,b,b,70,1,48,17,92481,92879,398,1
Simon_mitTrigger_redblue-13-2,T,b,b,b,70,1,49,17,93681,94063,382,1
Simon_mitTrigger_redblue-13-2,X,r,r,r,30,1,50,16,94864,95231,367,1
Simon_mitTrigger_redblue-13-2,X,r,r,r,70,1,51,17,96031,96359,328,1
Simon_mitTrigger_redblue-13-2,X,r,r,r,70,1,52,16,97164,97503,339,1
Simon_mitTrigger_redblue-13-2,X,r,r,r,70,1,53,17,98298,98639,341,1
Simon_mitTrigger_redblue-13-2,T,b,b,b,70,1,54,17,99448,99831,383,1
Simon_mitTrigger_redblue-13-2,X,r,r,r,30,1,55,16,100631,101111,480,1
Simon_mitTrigger_redblue-13-2,X,r,r,r,30,1,56,17,101915,102343,428,1
Simon_mitTrigger_redblue-13-2,T,b,b,b,30,1,57,17,103148,103535,387,1
Simon_mitTrigger_redblue-13-2,T,b,b,b,30,1,58,17,104332,104679,347,1
Simon_mitTrigger_redblue-13-2,T,b,b,b,70,1,59,17,105482,105919,437,1
Simon_mitTrigger_redblue-13-2,T,b,b,b,30,1,60,17,106715,107047,332,1
Simon_mitTrigger_redblue-13-2,T,b,b,b,30,1,61,17,107849,108175,326,1
Simon_mitTrigger_redblue-13-2,X,r,b,r,30,1,62,17,108982,109343,361,0
Simon_mitTrigger_redblue-13-2,T,b,b,b,70,1,63,17,110149,110575,426,1
Simon_mitTrigger_redblue-13-2,X,r,r,r,30,1,64,16,111382,111824,442,1
Simon_mitTrigger_redblue-13-2,X,r,r,r,70,1,65,16,112632,112975,343,1
Simon_mitTrigger_redblue-13-2,T,b,b,b,30,1,66,16,113782,114184,402,1
Simon_mitTrigger_redblue-13-2,T,b,b,b,30,1,67,16,114982,115352,370,1
Simon_mitTrigger_redblue-13-2,X,r,r,r,70,1,68,17,116149,116528,379,1
Simon_mitTrigger_redblue-13-2,X,r,r,r,70,1,69,17,117333,117680,347,1
Simon_mitTrigger_redblue-13-2,T,b,b,b,30,1,70,17,118483,118864,381,1
Simon_mitTrigger_redblue-13-2,T,b,b,b,70,1,71,17,119666,120096,430,1
Simon_mitTrigger_redblue-13-2,X,r,r,r,70,1,72,17,120900,121544,644,1
Simon_mitTrigger_redblue-13-2,X,r,r,r,30,1,73,17,122350,122720,370,1
Simon_mitTrigger_redblue-13-2,X,r,r,r,30,1,74,16,123516,124144,628,1
Simon_mitTrigger_redblue-13-2,X,r,r,r,30,1,75,17,124950,125304,354,1
Simon_mitTrigger_redblue-13-2,T,b,b,b,70,1,76,17,126100,126544,444,1
Simon_mitTrigger_redblue-13-2,X,r,r,r,70,1,77,17,127350,127920,570,1
Simon_mitTrigger_redblue-13-2,T,b,b,b,70,1,78,17,128717,129144,427,1
Simon_mitTrigger_redblue-13-2,T,b,b,b,30,1,79,16,129950,130416,466,1
Simon_mitTrigger_redblue-13-2,T,b,b,b,70,1,80,17,131217,131664,447,1
Simon_mitTrigger_redblue-13-2,X,r,r,r,70,2,81,16,176570,177040,470,1
Simon_mitTrigger_redblue-13-2,X,r,r,r,70,2,82,17,177837,178128,291,1
Simon_mitTrigger_redblue-13-2,X,r,r,r,30,2,83,17,178937,179321,384,1
Simon_mitTrigger_redblue-13-2,T,b,b,b,70,2,84,17,180121,180529,408,1
Simon_mitTrigger_redblue-13-2,T,b,b,b,30,2,85,16,181337,181729,392,1
Simon_mitTrigger_redblue-13-2,T,b,b,b,70,2,86,17,182538,182905,367,1
Simon_mitTrigger_redblue-13-2,X,r,b,r,70,2,87,16,183704,184057,353,0
Simon_mitTrigger_redblue-13-2,T,b,b,b,30,2,88,16,184854,185241,387,1
Simon_mitTrigger_redblue-13-2,T,b,b,b,70,2,89,17,186038,186417,379,1
Simon_mitTrigger_redblue-13-2,T,b,b,b,70,2,90,17,187221,187553,332,1
Simon_mitTrigger_redblue-13-2,X,r,r,r,30,2,91,17,188355,188817,462,1
Simon_mitTrigger_redblue-13-2,X,r,r,r,30,2,92,17,189638,189961,323,1
Simon_mitTrigger_redblue-13-2,X,r,r,r,70,2,93,16,190771,191121,350,1
Simon_mitTrigger_redblue-13-2,T,b,b,b,70,2,94,17,191922,192345,423,1
Simon_mitTrigger_redblue-13-2,X,r,r,r,70,2,95,17,193155,193529,374,1
Simon_mitTrigger_redblue-13-2,X,r,r,r,70,2,96,16,194338,194633,295,1
Simon_mitTrigger_redblue-13-2,T,b,b,b,30,2,97,16,195438,195833,395,1
Simon_mitTrigger_redblue-13-2,X,r,r,r,70,2,98,17,196639,196969,330,1
Simon_mitTrigger_redblue-13-2,X,r,r,r,30,2,99,17,197772,198137,365,1
Simon_mitTrigger_redblue-13-2,X,r,r,r,30,2,100,17,198939,199257,318,1
Simon_mitTrigger_redblue-13-2,T,b,r,b,70,2,101,16,200055,200337,282,0
Simon_mitTrigger_redblue-13-2,T,b,b,b,70,2,102,17,201139,201553,414,1
Simon_mitTrigger_redblue-13-2,T,b,b,b,30,2,103,17,202356,202753,397,1
Simon_mitTrigger_redblue-13-2,X,r,r,r,70,2,104,17,203556,203945,389,1
Simon_mitTrigger_redblue-13-2,T,b,b,b,30,2,105,17,204739,205097,358,1
Simon_mitTrigger_redblue-13-2,T,b,b,b,30,2,106,17,205906,206193,287,1
Simon_mitTrigger_redblue-13-2,T,b,r,b,70,2,107,16,206989,207337,348,0
Simon_mitTrigger_redblue-13-2,X,r,r,r,70,2,108,16,208139,208561,422,1
Simon_mitTrigger_redblue-13-2,T,b,b,b,70,2,109,16,209356,209737,381,1
Simon_mitTrigger_redblue-13-2,X,r,b,r,70,2,110,17,210540,210929,389,0
Simon_mitTrigger_redblue-13-2,X,r,r,r,30,2,111,17,211740,212113,373,1
Simon_mitTrigger_redblue-13-2,X,r,r,r,30,2,112,17,212923,213313,390,1
Simon_mitTrigger_redblue-13-2,T,b,b,b,30,2,113,17,214123,214569,446,1
Simon_mitTrigger_redblue-13-2,X,r,r,r,70,2,114,16,215373,215769,396,1
Simon_mitTrigger_redblue-13-2,X,r,r,r,70,2,115,16,216573,216945,372,1
Simon_mitTrigger_redblue-13-2,X,r,r,r,30,2,116,17,217740,218161,421,1
Simon_mitTrigger_redblue-13-2,T,b,b,b,70,2,117,17,218957,219433,476,1
Simon_mitTrigger_redblue-13-2,X,r,b,r,30,2,118,16,220240,220681,441,0
Simon_mitTrigger_redblue-13-2,T,b,b,b,70,2,119,16,221490,221889,399,1
Simon_mitTrigger_redblue-13-2,X,r,r,r,30,2,120,16,222690,223105,415,1
Simon_mitTrigger_redblue-13-2,X,r,r,r,70,2,121,16,223907,224353,446,1
Simon_mitTrigger_redblue-13-2,T,b,b,b,30,2,122,16,225157,225569,412,1
Simon_mitTrigger_redblue-13-2,X,r,r,r,70,2,123,17,226374,226785,411,1
Simon_mitTrigger_redblue-13-2,T,b,b,b,30,2,124,17,227591,228033,442,1
Simon_mitTrigger_redblue-13-2,T,b,b,b,70,2,125,17,228841,229281,440,1
Simon_mitTrigger_redblue-13-2,X,r,r,r,30,2,126,17,230091,230545,454,1
Simon_mitTrigger_redblue-13-2,X,r,r,r,30,2,127,17,231341,231697,356,1
Simon_mitTrigger_redblue-13-2,X,r,r,r,30,2,128,17,232508,232833,325,1
Simon_mitTrigger_redblue-13-2,X,r,r,r,30,2,129,16,233641,234009,368,1
Simon_mitTrigger_redblue-13-2,X,r,r,r,70,2,130,17,234808,235169,361,1
Simon_mitTrigger_redblue-13-2,T,b,b,b,70,2,131,17,235975,236345,370,1
Simon_mitTrigger_redblue-13-2,X,r,r,r,70,2,132,17,237142,237641,499,1
Simon_mitTrigger_redblue-13-2,T,b,b,b,70,2,133,17,238442,238825,383,1
Simon_mitTrigger_redblue-13-2,T,b,b,b,30,2,134,17,239625,239993,368,1
Simon_mitTrigger_redblue-13-2,X,r,r,r,70,2,135,17,240792,241138,346,1
Simon_mitTrigger_redblue-13-2,X,r,r,r,70,2,136,17,241942,242298,356,1
Simon_mitTrigger_redblue-13-2,T,b,b,b,30,2,137,17,243092,243474,382,1
Simon_mitTrigger_redblue-13-2,X,r,r,r,70,2,138,16,244275,244618,343,1
Simon_mitTrigger_redblue-13-2,X,r,b,r,30,2,139,17,245426,245842,416,0
Simon_mitTrigger_redblue-13-2,T,b,b,b,30,2,140,16,246642,247146,504,1
Simon_mitTrigger_redblue-13-2,X,r,r,r,70,2,141,16,247942,248322,380,1
Simon_mitTrigger_redblue-13-2,T,b,b,b,70,2,142,17,249126,249786,660,1
Simon_mitTrigger_redblue-13-2,T,b,b,b,70,2,143,17,250593,251042,449,1
Simon_mitTrigger_redblue-13-2,T,b,b,b,30,2,144,17,251843,252386,543,1
Simon_mitTrigger_redblue-13-2,T,b,b,b,70,2,145,17,253193,253722,529,1
Simon_mitTrigger_redblue-13-2,X,r,r,r,30,2,146,16,254526,254962,436,1
Simon_mitTrigger_redblue-13-2,T,b,b,b,30,2,147,17,255760,256282,522,1
Simon_mitTrigger_redblue-13-2,X,r,r,r,30,2,148,16,257076,257626,550,1
Simon_mitTrigger_redblue-13-2,T,b,b,b,30,2,149,17,258427,258842,415,1
Simon_mitTrigger_redblue-13-2,T,b,b,b,30,2,150,16,259643,259954,311,1
Simon_mitTrigger_redblue-13-2,X,r,r,r,30,2,151,17,260760,261154,394,1
Simon_mitTrigger_redblue-13-2,T,b,b,b,30,2,152,17,261960,262426,466,1
Simon_mitTrigger_redblue-13-2,X,r,r,r,30,2,153,17,263227,263618,391,1
Simon_mitTrigger_redblue-13-2,T,b,b,b,30,2,154,17,264427,264930,503,1
Simon_mitTrigger_redblue-13-2,T,b,b,b,70,2,155,17,265727,266090,363,1
Simon_mitTrigger_redblue-13-2,T,b,b,b,70,2,156,17,266894,267282,388,1
Simon_mitTrigger_redblue-13-2,T,b,b,b,70,2,157,16,268077,268434,357,1
Simon_mitTrigger_redblue-13-2,T,b,b,b,30,2,158,17,269244,269690,446,1
Simon_mitTrigger_redblue-13-2,X,r,r,r,30,2,159,17,270494,271010,516,1
Simon_mitTrigger_redblue-13-2,T,b,b,b,30,2,160,17,271811,272298,487,1
Simon_mitTrigger_redblue-13-2,X,r,r,r,30,3,161,17,318848,319299,451,1
Simon_mitTrigger_redblue-13-2,T,b,b,b,30,3,162,17,320098,320683,585,1
Simon_mitTrigger_redblue-13-2,T,b,b,b,30,3,163,16,321481,321843,362,1
Simon_mitTrigger_redblue-13-2,X,r,r,r,30,3,164,17,322648,323155,507,1
Simon_mitTrigger_redblue-13-2,T,b,b,b,70,3,165,17,323965,324331,366,1
Simon_mitTrigger_redblue-13-2,X,r,r,r,30,3,166,17,325132,325531,399,1
Simon_mitTrigger_redblue-13-2,T,b,b,b,30,3,167,17,326332,326763,431,1
Simon_mitTrigger_redblue-13-2,X,r,r,r,70,3,168,17,327565,327923,358,1
Simon_mitTrigger_redblue-13-2,X,r,r,r,70,3,169,17,328732,329083,351,1
Simon_mitTrigger_redblue-13-2,X,r,r,r,30,3,170,17,329899,330227,328,1
Simon_mitTrigger_redblue-13-2,T,b,b,b,70,3,171,17,331032,331395,363,1
Simon_mitTrigger_redblue-13-2,T,b,b,b,70,3,172,17,332199,332499,300,1
Simon_mitTrigger_redblue-13-2,X,r,r,r,30,3,173,17,333299,334683,1384,1
Simon_mitTrigger_redblue-13-2,X,r,r,r,70,3,174,16,335482,335763,281,1
Simon_mitTrigger_redblue-13-2,T,b,r,b,70,3,175,17,336566,336875,309,0
Simon_mitTrigger_redblue-13-2,X,r,r,r,30,3,176,16,337682,338131,449,1
Simon_mitTrigger_redblue-13-2,T,b,b,b,30,3,177,17,338933,339475,542,1
Simon_mitTrigger_redblue-13-2,X,r,r,r,30,3,178,17,340283,340667,384,1
Simon_mitTrigger_redblue-13-2,T,b,b,b,70,3,179,17,341466,341819,353,1
Simon_mitTrigger_redblue-13-2,T,b,b,b,30,3,180,16,342616,343131,515,1
Simon_mitTrigger_redblue-13-2,T,b,b,b,30,3,181,17,343933,344283,350,1
Simon_mitTrigger_redblue-13-2,T,b,b,b,30,3,182,17,345083,345475,392,1
Simon_mitTrigger_redblue-13-2,T,b,b,b,70,3,183,17,346283,346659,376,1
Simon_mitTrigger_redblue-13-2,X,r,r,r,70,3,184,17,347467,347867,400,1
Simon_mitTrigger_redblue-13-2,T,b,b,b,70,3,185,17,348667,349475,808,1
Simon_mitTrigger_redblue-13-2,X,r,r,r,70,3,186,16,350283,350787,504,1
Simon_mitTrigger_redblue-13-2,X,r,r,r,70,3,187,17,351584,351923,339,1
Simon_mitTrigger_redblue-13-2,X,r,r,r,70,3,188,17,352734,353051,317,1
Simon_mitTrigger_redblue-13-2,T,b,b,b,30,3,189,16,353850,354307,457,1
Simon_mitTrigger_redblue-13-2,T,b,b,b,30,3,190,17,355117,355459,342,1
Simon_mitTrigger_redblue-13-2,X,r,r,r,30,3,191,16,356267,357491,1224,1
Simon_mitTrigger_redblue-13-2,X,r,r,r,70,3,192,17,358301,358779,478,1
Simon_mitTrigger_redblue-13-2,X,r,r,r,30,3,193,17,359584,359971,387,1
Simon_mitTrigger_redblue-13-2,X,r,r,r,30,3,194,17,360768,361139,371,1
Simon_mitTrigger_redblue-13-2,T,b,b,b,70,3,195,16,361934,362323,389,1
Simon_mitTrigger_redblue-13-2,X,r,r,r,70,3,196,17,363118,363523,405,1
Simon_mitTrigger_redblue-13-2,T,b,r,b,70,3,197,17,364318,364667,349,0
Simon_mitTrigger_redblue-13-2,T,b,b,b,70,3,198,17,365468,365859,391,1
Simon_mitTrigger_redblue-13-2,T,b,b,b,30,3,199,17,366668,367139,471,1
Simon_mitTrigger_redblue-13-2,X,r,r,r,70,3,200,17,367935,368300,365,1
Simon_mitTrigger_redblue-13-2,X,r,r,r,30,3,201,16,369101,369572,471,1
Simon_mitTrigger_redblue-13-2,X,r,r,r,70,3,202,16,370368,370724,356,1
Simon_mitTrigger_redblue-13-2,X,r,r,r,70,3,203,16,371518,371852,334,1
Simon_mitTrigger_redblue-13-2,X,r,r,r,30,3,204,17,372652,373756,1104,1
Simon_mitTrigger_redblue-13-2,X,r,r,r,30,3,205,17,374552,374940,388,1
Simon_mitTrigger_redblue-13-2,T,b,r,b,30,3,206,16,375735,376132,397,0
Simon_mitTrigger_redblue-13-2,X,r,r,r,30,3,207,16,376935,377396,461,1
Simon_mitTrigger_redblue-13-2,X,r,r,r,70,3,208,17,378202,378540,338,1
Simon_mitTrigger_redblue-13-2,X,r,r,r,30,3,209,17,379336,379684,348,1
Simon_mitTrigger_redblue-13-2,X,r,r,r,70,3,210,17,380486,380812,326,1
Simon_mitTrigger_redblue-13-2,T,b,b,b,30,3,211,17,381619,382364,745,1
Simon_mitTrigger_redblue-13-2,T,b,b,b,30,3,212,16,383169,383540,371,1
Simon_mitTrigger_redblue-13-2,T,b,b,b,30,3,213,17,384336,384660,324,1
Simon_mitTrigger_redblue-13-2,T,b,b,b,70,3,214,16,385469,385860,391,1
Simon_mitTrigger_redblue-13-2,T,b,b,b,70,3,215,16,386669,387004,335,1
Simon_mitTrigger_redblue-13-2,T,b,b,b,70,3,216,17,387803,388132,329,1
Simon_mitTrigger_redblue-13-2,T,b,b,b,70,3,217,16,388936,389292,356,1
Simon_mitTrigger_redblue-13-2,X,r,b,r,70,3,218,16,390086,390396,310,0
Simon_mitTrigger_redblue-13-2,T,b,b,b,30,3,219,17,391203,391772,569,1
Simon_mitTrigger_redblue-13-2,T,b,r,b,70,3,220,17,392570,393356,786,0
Simon_mitTrigger_redblue-13-2,X,r,r,r,70,3,221,16,394153,394644,491,1
Simon_mitTrigger_redblue-13-2,T,b,b,b,70,3,222,17,395454,395900,446,1
Simon_mitTrigger_redblue-13-2,X,r,r,r,30,3,223,17,396704,397156,452,1
Simon_mitTrigger_redblue-13-2,X,r,r,r,70,3,224,17,397954,398340,386,1
Simon_mitTrigger_redblue-13-2,T,b,b,b,30,3,225,17,399137,399588,451,1
Simon_mitTrigger_redblue-13-2,T,b,b,b,30,3,226,16,400387,400796,409,1
Simon_mitTrigger_redblue-13-2,T,b,b,b,70,3,227,17,401604,402012,408,1
Simon_mitTrigger_redblue-13-2,T,b,b,b,30,3,228,17,402821,403156,335,1
Simon_mitTrigger_redblue-13-2,T,b,b,b,30,3,229,17,403954,404284,330,1
Simon_mitTrigger_redblue-13-2,X,r,r,r,70,3,230,17,405088,405516,428,1
Simon_mitTrigger_redblue-13-2,X,r,r,r,30,3,231,17,406321,406716,395,1
Simon_mitTrigger_redblue-13-2,T,b,b,b,70,3,232,17,407521,407948,427,1
Simon_mitTrigger_redblue-13-2,X,r,b,r,30,3,233,16,408754,409108,354,0
Simon_mitTrigger_redblue-13-2,T,b,b,b,30,3,234,17,409905,410492,587,1
Simon_mitTrigger_redblue-13-2,X,r,r,r,30,3,235,17,411288,411684,396,1
Simon_mitTrigger_redblue-13-2,T,b,b,b,70,3,236,17,412488,413044,556,1
Simon_mitTrigger_redblue-13-2,X,r,r,r,70,3,237,17,413855,414244,389,1
Simon_mitTrigger_redblue-13-2,X,r,r,r,70,3,238,17,415055,415404,349,1
Simon_mitTrigger_redblue-13-2,T,b,b,b,70,3,239,17,416205,416644,439,1
Simon_mitTrigger_redblue-13-2,X,r,r,r,30,3,240,16,417438,417900,462,1
Simon_mitTrigger_redblue-13-2,X,r,r,r,70,4,241,17,451291,451901,610,1
Simon_mitTrigger_redblue-13-2,X,r,r,r,30,4,242,17,452708,453045,337,1
Simon_mitTrigger_redblue-13-2,X,r,r,r,30,4,243,16,453841,454141,300,1
Simon_mitTrigger_redblue-13-2,T,b,b,b,30,4,244,16,454941,455469,528,1
Simon_mitTrigger_redblue-13-2,X,r,r,r,70,4,245,17,456275,456677,402,1
Simon_mitTrigger_redblue-13-2,T,b,b,b,70,4,246,17,457475,457901,426,1
Simon_mitTrigger_redblue-13-2,X,r,r,r,30,4,247,16,458708,459301,593,1
Simon_mitTrigger_redblue-13-2,T,b,b,b,70,4,248,16,460108,460445,337,1
Simon_mitTrigger_redblue-13-2,T,b,b,b,70,4,249,17,461242,461573,331,1
Simon_mitTrigger_redblue-13-2,X,r,r,r,30,4,250,16,462375,462781,406,1
Simon_mitTrigger_redblue-13-2,T,b,b,b,30,4,251,16,463575,464069,494,1
Simon_mitTrigger_redblue-13-2,X,r,r,r,70,4,252,16,464875,465253,378,1
Simon_mitTrigger_redblue-13-2,X,r,r,r,30,4,253,17,466059,466573,514,1
Simon_mitTrigger_redblue-13-2,X,r,r,r,70,4,254,17,467376,467701,325,1
Simon_mitTrigger_redblue-13-2,T,b,r,b,70,4,255,17,468509,468797,288,0
Simon_mitTrigger_redblue-13-2,X,r,r,r,70,4,256,16,469592,470005,413,1
Simon_mitTrigger_redblue-13-2,T,b,b,b,70,4,257,17,470809,471221,412,1
Simon_mitTrigger_redblue-13-2,T,b,b,b,70,4,258,17,472026,472461,435,1
Simon_mitTrigger_redblue-13-2,X,r,r,r,30,4,259,16,473259,473709,450,1
Simon_mitTrigger_redblue-13-2,T,b,b,b,70,4,260,16,474509,475037,528,1
Simon_mitTrigger_redblue-13-2,T,b,b,b,30,4,261,17,475843,476253,410,1
Simon_mitTrigger_redblue-13-2,T,b,b,b,70,4,262,17,477060,477445,385,1
Simon_mitTrigger_redblue-13-2,T,b,b,b,30,4,263,17,478243,478605,362,1
Simon_mitTrigger_redblue-13-2,X,r,r,r,70,4,264,17,479410,479813,403,1
Simon_mitTrigger_redblue-13-2,T,b,b,b,30,4,265,17,480610,481021,411,1
Simon_mitTrigger_redblue-13-2,X,r,r,r,70,4,266,17,481827,482205,378,1
Simon_mitTrigger_redblue-13-2,T,b,b,b,70,4,267,17,483010,483445,435,1
Simon_mitTrigger_redblue-13-2,T,b,b,b,70,4,268,16,484243,484621,378,1
Simon_mitTrigger_redblue-13-2,T,b,b,b,30,4,269,17,485427,485846,419,1
Simon_mitTrigger_redblue-13-2,X,r,r,r,70,4,270,17,486644,487053,409,1
Simon_mitTrigger_redblue-13-2,X,r,r,r,30,4,271,16,487860,488237,377,1
Simon_mitTrigger_redblue-13-2,T,b,b,b,30,4,272,17,489044,489549,505,1
Simon_mitTrigger_redblue-13-2,X,r,r,r,30,4,273,17,490344,490805,461,1
Simon_mitTrigger_redblue-13-2,X,r,r,r,30,4,274,17,491611,492029,418,1
Simon_mitTrigger_redblue-13-2,T,b,b,b,70,4,275,16,492827,493309,482,1
Simon_mitTrigger_redblue-13-2,T,b,b,b,30,4,276,17,494111,494573,462,1
Simon_mitTrigger_redblue-13-2,T,b,r,b,70,4,277,17,495378,495669,291,0
Simon_mitTrigger_redblue-13-2,T,b,b,b,70,4,278,17,496478,496982,504,1
Simon_mitTrigger_redblue-13-2,T,b,b,b,30,4,279,17,497778,498566,788,1
Simon_mitTrigger_redblue-13-2,X,r,r,r,70,4,280,16,499361,499742,381,1
Simon_mitTrigger_redblue-13-2,T,b,b,b,30,4,281,17,500545,500902,357,1
Simon_mitTrigger_redblue-13-2,T,b,b,b,70,4,282,16,501711,502182,471,1
Simon_mitTrigger_redblue-13-2,X,r,b,r,30,4,283,16,502978,503326,348,0
Simon_mitTrigger_redblue-13-2,X,r,r,r,70,4,284,16,504128,504534,406,1
Simon_mitTrigger_redblue-13-2,X,r,r,r,30,4,285,16,505328,505774,446,1
Simon_mitTrigger_redblue-13-2,X,r,r,r,70,4,286,16,506595,506958,363,1
Simon_mitTrigger_redblue-13-2,X,r,r,r,70,4,287,17,507762,508102,340,1
Simon_mitTrigger_redblue-13-2,T,b,b,b,30,4,288,17,508912,509382,470,1
Simon_mitTrigger_redblue-13-2,T,b,b,b,30,4,289,17,510179,510574,395,1
Simon_mitTrigger_redblue-13-2,X,r,r,r,70,4,290,17,511379,511726,347,1
Simon_mitTrigger_redblue-13-2,X,r,r,r,70,4,291,17,512529,512878,349,1
Simon_mitTrigger_redblue-13-2,T,b,b,b,30,4,292,17,513679,514030,351,1
Simon_mitTrigger_redblue-13-2,T,b,b,b,70,4,293,17,514829,515190,361,1
Simon_mitTrigger_redblue-13-2,T,b,b,b,30,4,294,17,515996,516310,314,1
Simon_mitTrigger_redblue-13-2,T,b,b,b,70,4,295,17,517113,517542,429,1
Simon_mitTrigger_redblue-13-2,X,r,b,r,30,4,296,17,518346,518646,300,0
Simon_mitTrigger_redblue-13-2,X,r,r,r,70,4,297,17,519446,519830,384,1
Simon_mitTrigger_redblue-13-2,X,r,r,r,70,4,298,17,520630,521046,416,1
Simon_mitTrigger_redblue-13-2,X,r,r,r,30,4,299,16,521846,522294,448,1
Simon_mitTrigger_redblue-13-2,X,r,r,r,30,4,300,16,523096,523446,350,1
Simon_mitTrigger_redblue-13-2,X,r,r,r,30,4,301,16,524246,524590,344,1
Simon_mitTrigger_redblue-13-2,T,b,r,b,30,4,302,17,525397,525758,361,0
Simon_mitTrigger_redblue-13-2,T,b,b,b,30,4,303,16,526563,527038,475,1
Simon_mitTrigger_redblue-13-2,X,r,r,r,70,4,304,17,527847,528206,359,1
Simon_mitTrigger_redblue-13-2,T,b,b,b,30,4,305,16,529013,529406,393,1
Simon_mitTrigger_redblue-13-2,X,r,r,r,30,4,306,17,530214,530726,512,1
Simon_mitTrigger_redblue-13-2,T,b,b,b,70,4,307,16,531530,532270,740,1
Simon_mitTrigger_redblue-13-2,X,r,r,r,70,4,308,17,533064,533670,606,1
Simon_mitTrigger_redblue-13-2,T,b,b,b,70,4,309,17,534481,534974,493,1
Simon_mitTrigger_redblue-13-2,T,b,b,b,30,4,310,17,535781,536158,377,1
Simon_mitTrigger_redblue-13-2,T,b,b,b,70,4,311,17,536964,537430,466,1
Simon_mitTrigger_redblue-13-2,T,b,b,b,30,4,312,17,538231,538678,447,1
Simon_mitTrigger_redblue-13-2,T,b,b,b,30,4,313,17,539481,539918,437,1
Simon_mitTrigger_redblue-13-2,T,b,b,b,70,4,314,16,540714,541118,404,1
Simon_mitTrigger_redblue-13-2,X,r,b,r,30,4,315,16,541914,542294,380,0
Simon_mitTrigger_redblue-13-2,X,r,r,r,70,4,316,17,543098,543566,468,1
Simon_mitTrigger_redblue-13-2,X,r,r,r,30,4,317,17,544365,544814,449,1
Simon_mitTrigger_redblue-13-2,X,r,r,r,70,4,318,17,545615,545934,319,1
Simon_mitTrigger_redblue-13-2,X,r,r,r,30,4,319,16,546731,547086,355,1
Simon_mitTrigger_redblue-13-2,X,r,r,r,30,4,320,16,547898,548214,316,1
Simon_mitTrigger_redblue-13-2,X,r,r,r,70,5,321,16,582367,583327,960,1
Simon_mitTrigger_redblue-13-2,T,b,b,b,30,5,322,16,584134,584551,417,1
Simon_mitTrigger_redblue-13-2,X,r,r,r,30,5,323,17,585351,585895,544,1
Simon_mitTrigger_redblue-13-2,X,r,r,r,30,5,324,17,586701,587055,354,1
Simon_mitTrigger_redblue-13-2,X,r,r,r,30,5,325,16,587851,588151,300,1
Simon_mitTrigger_redblue-13-2,T,b,b,b,70,5,326,16,588951,589383,432,1
Simon_mitTrigger_redblue-13-2,X,r,r,r,30,5,327,17,590185,590583,398,1
Simon_mitTrigger_redblue-13-2,T,b,b,b,30,5,328,17,591385,591767,382,1
Simon_mitTrigger_redblue-13-2,X,r,r,r,30,5,329,16,592568,593103,535,1
Simon_mitTrigger_redblue-13-2,X,r,r,r,70,5,330,17,593902,594383,481,1
Simon_mitTrigger_redblue-13-2,X,r,r,r,30,5,331,17,595185,595655,470,1
Simon_mitTrigger_redblue-13-2,X,r,r,r,30,5,332,17,596452,596807,355,1
Simon_mitTrigger_redblue-13-2,T,b,r,b,30,5,333,17,597602,597935,333,0
Simon_mitTrigger_redblue-13-2,T,b,b,b,30,5,334,16,598735,599215,480,1
Simon_mitTrigger_redblue-13-2,T,b,b,b,30,5,335,17,600019,600383,364,1
Simon_mitTrigger_redblue-13-2,T,b,b,b,30,5,336,17,601186,601607,421,1
Simon_mitTrigger_redblue-13-2,X,r,r,r,30,5,337,16,602402,602799,397,1
Simon_mitTrigger_redblue-13-2,T,b,b,b,30,5,338,16,603602,604175,573,1
Simon_mitTrigger_redblue-13-2,X,r,r,r,30,5,339,16,604969,605399,430,1
Simon_mitTrigger_redblue-13-2,T,b,b,b,70,5,340,17,606203,606799,596,1
Simon_mitTrigger_redblue-13-2,T,b,b,b,70,5,341,17,607603,607935,332,1
Simon_mitTrigger_redblue-13-2,T,b,b,b,70,5,342,17,608736,609096,360,1
Simon_mitTrigger_redblue-13-2,X,r,r,r,70,5,343,17,609903,610215,312,1
Simon_mitTrigger_redblue-13-2,X,r,r,r,30,5,344,17,611020,611359,339,1
Simon_mitTrigger_redblue-13-2,T,b,b,b,70,5,345,17,612170,612591,421,1
Simon_mitTrigger_redblue-13-2,T,b,b,b,70,5,346,16,613386,613727,341,1
Simon_mitTrigger_redblue-13-2,X,r,r,r,70,5,347,17,614537,615023,486,1
Simon_mitTrigger_redblue-13-2,T,b,b,b,70,5,348,17,615820,616223,403,1
Simon_mitTrigger_redblue-13-2,T,b,b,b,70,5,349,17,617020,617383,363,1
Simon_mitTrigger_redblue-13-2,X,r,r,r,70,5,350,17,618187,618607,420,1
Simon_mitTrigger_redblue-13-2,X,r,r,r,70,5,351,17,619404,619743,339,1
Simon_mitTrigger_redblue-13-2,X,r,r,r,30,5,352,17,620554,620943,389,1
Simon_mitTrigger_redblue-13-2,X,r,r,r,30,5,353,17,621754,622079,325,1
Simon_mitTrigger_redblue-13-2,X,r,r,r,30,5,354,16,622887,623151,264,1
Simon_mitTrigger_redblue-13-2,T,b,b,b,70,5,355,17,623954,624288,334,1
Simon_mitTrigger_redblue-13-2,T,b,b,b,70,5,356,16,625087,625408,321,1
Simon_mitTrigger_redblue-13-2,T,b,b,b,70,5,357,17,626204,626552,348,1
Simon_mitTrigger_redblue-13-2,T,b,b,b,70,5,358,17,627354,627656,302,1
Simon_mitTrigger_redblue-13-2,X,r,b,r,70,5,359,16,628454,628792,338,0
Simon_mitTrigger_redblue-13-2,T,b,b,b,70,5,360,17,629588,630024,436,1
Simon_mitTrigger_redblue-13-2,T,b,b,b,70,5,361,17,630821,631296,475,1
Simon_mitTrigger_redblue-13-2,T,b,b,b,70,5,362,17,632105,632488,383,1
Simon_mitTrigger_redblue-13-2,T,b,b,b,30,5,363,17,633288,633648,360,1
Simon_mitTrigger_redblue-13-2,X,r,r,r,70,5,364,17,634455,634840,385,1
Simon_mitTrigger_redblue-13-2,T,b,b,b,30,5,365,17,635638,635960,322,1
Simon_mitTrigger_redblue-13-2,T,b,b,b,70,5,366,17,636755,637128,373,1
Simon_mitTrigger_redblue-13-2,X,r,r,r,30,5,367,17,637922,638368,446,1
Simon_mitTrigger_redblue-13-2,X,r,r,r,70,5,368,17,639172,639504,332,1
Simon_mitTrigger_redblue-13-2,T,b,b,b,70,5,369,16,640305,641064,759,1
Simon_mitTrigger_redblue-13-2,T,b,b,b,30,5,370,17,641872,642280,408,1
Simon_mitTrigger_redblue-13-2,T,b,b,b,70,5,371,17,643089,643424,335,1
Simon_mitTrigger_redblue-13-2,X,r,r,r,70,5,372,17,644222,644672,450,1
Simon_mitTrigger_redblue-13-2,T,b,b,b,30,5,373,16,645472,645824,352,1
Simon_mitTrigger_redblue-13-2,X,r,r,r,70,5,374,16,646622,646928,306,1
Simon_mitTrigger_redblue-13-2,X,r,r,r,70,5,375,16,647722,648096,374,1
Simon_mitTrigger_redblue-13-2,T,b,b,b,30,5,376,17,648906,649272,366,1
Simon_mitTrigger_redblue-13-2,T,b,b,b,30,5,377,17,650073,650424,351,1
Simon_mitTrigger_redblue-13-2,X,r,r,r,70,5,378,17,651223,651512,289,1
Simon_mitTrigger_redblue-13-2,T,b,b,b,30,5,379,17,652323,652960,637,1
Simon_mitTrigger_redblue-13-2,X,r,b,r,30,5,380,16,653756,654160,404,0
Simon_mitTrigger_redblue-13-2,X,r,r,r,70,5,381,16,654956,655280,324,1
Simon_mitTrigger_redblue-13-2,X,r,r,r,30,5,382,17,656090,656528,438,1
Simon_mitTrigger_redblue-13-2,X,r,r,r,30,5,383,17,657323,657664,341,1
Simon_mitTrigger_redblue-13-2,X,r,r,r,70,5,384,16,658473,658992,519,1
Simon_mitTrigger_redblue-13-2,X,r,r,r,70,5,385,17,659790,660168,378,1
Simon_mitTrigger_redblue-13-2,X,r,r,r,70,5,386,16,660973,661312,339,1
Simon_mitTrigger_redblue-13-2,X,r,r,r,70,5,387,17,662107,662416,309,1
Simon_mitTrigger_redblue-13-2,X,r,r,r,70,5,388,17,663224,663536,312,1
Simon_mitTrigger_redblue-13-2,T,b,b,b,30,5,389,16,664340,664744,404,1
Simon_mitTrigger_redblue-13-2,T,b,b,b,30,5,390,16,665540,665840,300,1
Simon_mitTrigger_redblue-13-2,X,r,b,r,30,5,391,16,666640,666904,264,0
Simon_mitTrigger_redblue-13-2,T,b,b,b,30,5,392,16,667707,668120,413,1
Simon_mitTrigger_redblue-13-2,X,r,r,r,30,5,393,17,668924,669320,396,1
Simon_mitTrigger_redblue-13-2,X,r,r,r,30,5,394,17,670124,670448,324,1
Simon_mitTrigger_redblue-13-2,T,b,b,b,30,5,395,16,671257,671784,527,1
Simon_mitTrigger_redblue-13-2,T,b,b,b,70,5,396,17,672591,672968,377,1
Simon_mitTrigger_redblue-13-2,T,b,b,b,30,5,397,16,673774,674080,306,1
Simon_mitTrigger_redblue-13-2,X,r,r,r,70,5,398,16,674874,675232,358,1
Simon_mitTrigger_redblue-13-2,T,b,r,b,70,5,399,16,676041,676376,335,0
Simon_mitTrigger_redblue-13-2,T,b,b,b,30,5,400,17,677175,677576,401,1
Simon_mitTrigger_redblue-13-2,X,r,r,r,70,6,401,17,711744,712393,649,1
Simon_mitTrigger_redblue-13-2,T,b,b,b,30,6,402,17,713194,713553,359,1
Simon_mitTrigger_redblue-13-2,X,r,r,r,30,6,403,17,714361,714785,424,1
Simon_mitTrigger_redblue-13-2,T,b,b,b,70,6,404,17,715594,716025,431,1
Simon_mitTrigger_redblue-13-2,T,b,b,b,70,6,405,17,716828,717161,333,1
Simon_mitTrigger_redblue-13-2,X,r,r,r,70,6,406,17,717961,718353,392,1
Simon_mitTrigger_redblue-13-2,X,r,r,r,70,6,407,17,719161,719481,320,1
Simon_mitTrigger_redblue-13-2,T,b,b,b,30,6,408,17,720278,720745,467,1
Simon_mitTrigger_redblue-13-2,X,r,r,r,70,6,409,17,721545,721929,384,1
Simon_mitTrigger_redblue-13-2,T,b,b,b,30,6,410,17,722728,723073,345,1
Simon_mitTrigger_redblue-13-2,X,r,r,r,30,6,411,17,723878,724305,427,1
Simon_mitTrigger_redblue-13-2,T,b,b,b,70,6,412,17,725112,725545,433,1
Simon_mitTrigger_redblue-13-2,T,b,b,b,30,6,413,17,726345,726745,400,1
Simon_mitTrigger_redblue-13-2,X,r,r,r,30,6,414,17,727545,728001,456,1
Simon_mitTrigger_redblue-13-2,T,b,b,b,70,6,415,17,728812,729193,381,1
Simon_mitTrigger_redblue-13-2,X,r,b,r,70,6,416,16,729995,730353,358,0
Simon_mitTrigger_redblue-13-2,X,r,r,r,70,6,417,17,731162,731561,399,1
Simon_mitTrigger_redblue-13-2,X,r,r,r,70,6,418,17,732362,732705,343,1
Simon_mitTrigger_redblue-13-2,T,b,b,b,70,6,419,16,733512,734001,489,1
Simon_mitTrigger_redblue-13-2,T,b,b,b,70,6,420,17,734796,735193,397,1
Simon_mitTrigger_redblue-13-2,X,r,r,r,30,6,421,17,735996,736497,501,1
Simon_mitTrigger_redblue-13-2,T,b,b,b,70,6,422,17,737296,737673,377,1
Simon_mitTrigger_redblue-13-2,T,b,b,b,30,6,423,16,738479,739081,602,1
Simon_mitTrigger_redblue-13-2,T,b,b,b,30,6,424,16,739879,740409,530,1
Simon_mitTrigger_redblue-13-2,T,b,r,b,70,6,425,17,741213,741530,317,0
Simon_mitTrigger_redblue-13-2,X,r,r,r,30,6,426,16,742329,742769,440,1
Simon_mitTrigger_redblue-13-2,X,r,r,r,70,6,427,17,743580,743945,365,1
Simon_mitTrigger_redblue-13-2,X,r,r,r,70,6,428,16,744746,745074,328,1
Simon_mitTrigger_redblue-13-2,T,b,b,b,30,6,429,17,745880,746258,378,1
Simon_mitTrigger_redblue-13-2,X,r,b,r,30,6,430,16,747063,747425,362,0
Simon_mitTrigger_redblue-13-2,X,r,r,r,70,6,431,17,748230,748658,428,1
Simon_mitTrigger_redblue-13-2,X,r,r,r,30,6,432,16,749463,749809,346,1
Simon_mitTrigger_redblue-13-2,T,b,b,b,70,6,433,16,750613,751026,413,1
Simon_mitTrigger_redblue-13-2,T,b,b,b,70,6,434,16,751830,752218,388,1
Simon_mitTrigger_redblue-13-2,T,b,b,b,70,6,435,17,753014,753458,444,1
Simon_mitTrigger_redblue-13-2,X,r,r,r,30,6,436,17,754264,754858,594,1
Simon_mitTrigger_redblue-13-2,X,r,r,r,30,6,437,17,755664,756042,378,1
Simon_mitTrigger_redblue-13-2,T,b,b,b,30,6,438,16,756847,757482,635,1
Simon_mitTrigger_redblue-13-2,X,r,r,r,30,6,439,17,758281,758690,409,1
Simon_mitTrigger_redblue-13-2,T,b,b,b,70,6,440,16,759497,760002,505,1
Simon_mitTrigger_redblue-13-2,X,r,r,r,30,6,441,17,760798,761226,428,1
Simon_mitTrigger_redblue-13-2,X,r,r,r,70,6,442,17,762031,762506,475,1
Simon_mitTrigger_redblue-13-2,X,r,r,r,70,6,443,16,763314,763618,304,1
Simon_mitTrigger_redblue-13-2,T,b,b,b,30,6,444,17,764415,764802,387,1
Simon_mitTrigger_redblue-13-2,X,r,b,r,30,6,445,17,765598,766042,444,0
Simon_mitTrigger_redblue-13-2,X,r,r,r,30,6,446,17,766848,767770,922,1
Simon_mitTrigger_redblue-13-2,T,b,b,b,70,6,447,17,768565,768978,413,1
Simon_mitTrigger_redblue-13-2,T,b,b,b,70,6,448,17,769782,770250,468,1
Simon_mitTrigger_redblue-13-2,X,r,r,r,30,6,449,16,771048,771546,498,1
Simon_mitTrigger_redblue-13-2,X,r,r,r,70,6,450,16,772348,772778,430,1
Simon_mitTrigger_redblue-13-2,X,r,r,r,30,6,451,17,773582,773978,396,1
Simon_mitTrigger_redblue-13-2,T,b,b,b,30,6,452,17,774782,775322,540,1
Simon_mitTrigger_redblue-13-2,T,b,b,b,70,6,453,16,776115,776562,447,1
Simon_mitTrigger_redblue-13-2,T,b,b,b,30,6,454,16,777365,777754,389,1
Simon_mitTrigger_redblue-13-2,X,r,r,r,30,6,455,17,778549,778978,429,1
Simon_mitTrigger_redblue-13-2,T,b,b,b,30,6,456,16,779782,780234,452,1
Simon_mitTrigger_redblue-13-2,X,r,r,r,30,6,457,16,781032,781498,466,1
Simon_mitTrigger_redblue-13-2,T,b,b,b,30,6,458,17,782299,782690,391,1
Simon_mitTrigger_redblue-13-2,T,b,b,b,30,6,459,16,783499,784082,583,1
Simon_mitTrigger_redblue-13-2,T,b,b,b,30,6,460,17,784883,785322,439,1
Simon_mitTrigger_redblue-13-2,T,b,b,b,70,6,461,17,786116,786546,430,1
Simon_mitTrigger_redblue-13-2,T,b,b,b,30,6,462,17,787350,787746,396,1
Simon_mitTrigger_redblue-13-2,T,b,b,b,30,6,463,17,788550,788930,380,1
Simon_mitTrigger_redblue-13-2,X,r,b,r,30,6,464,17,789750,790050,300,0
Simon_mitTrigger_redblue-13-2,X,r,r,r,70,6,465,17,790850,791314,464,1
Simon_mitTrigger_redblue-13-2,T,b,b,b,70,6,466,17,792117,792602,485,1
Simon_mitTrigger_redblue-13-2,X,r,b,r,70,6,467,17,793400,793738,338,0
Simon_mitTrigger_redblue-13-2,X,r,r,r,30,6,468,16,794533,795010,477,1
Simon_mitTrigger_redblue-13-2,T,b,b,b,70,6,469,17,795817,796226,409,1
Simon_mitTrigger_redblue-13-2,T,b,b,b,30,6,470,17,797034,797418,384,1
Simon_mitTrigger_redblue-13-2,X,r,r,r,70,6,471,17,798217,798538,321,1
Simon_mitTrigger_redblue-13-2,X,r,r,r,70,6,472,17,799334,799682,348,1
Simon_mitTrigger_redblue-13-2,T,b,b,b,30,6,473,17,800484,800802,318,1
Simon_mitTrigger_redblue-13-2,X,r,r,r,30,6,474,17,801601,802250,649,1
Simon_mitTrigger_redblue-13-2,T,b,b,b,30,6,475,17,803051,803530,479,1
Simon_mitTrigger_redblue-13-2,T,b,r,b,70,6,476,17,804334,804626,292,0
Simon_mitTrigger_redblue-13-2,X,r,r,r,70,6,477,16,805434,805802,368,1
Simon_mitTrigger_redblue-13-2,X,r,r,r,70,6,478,17,806601,806986,385,1
Simon_mitTrigger_redblue-13-2,X,r,r,r,70,6,479,16,807784,808098,314,1
Simon_mitTrigger_redblue-13-2,T,b,r,b,70,6,480,17,808901,809242,341,0
Simon_mitTrigger_redblue-13-2,T,b,b,b,30,7,481,17,840554,841155,601,1
Simon_mitTrigger_redblue-13-2,X,r,r,r,30,7,482,17,841954,842363,409,1
Simon_mitTrigger_redblue-13-2,T,b,b,b,70,7,483,16,843170,843595,425,1
Simon_mitTrigger_redblue-13-2,X,r,r,r,70,7,484,17,844404,844803,399,1
Simon_mitTrigger_redblue-13-2,T,b,b,b,30,7,485,17,845604,846051,447,1
Simon_mitTrigger_redblue-13-2,X,r,r,r,70,7,486,17,846854,847251,397,1
Simon_mitTrigger_redblue-13-2,X,r,r,r,30,7,487,17,848054,848523,469,1
Simon_mitTrigger_redblue-13-2,T,b,b,b,70,7,488,17,849321,849691,370,1
Simon_mitTrigger_redblue-13-2,X,r,r,r,30,7,489,17,850488,851523,1035,1
Simon_mitTrigger_redblue-13-2,T,b,b,b,30,7,490,17,852321,852851,530,1
Simon_mitTrigger_redblue-13-2,T,b,b,b,30,7,491,17,853655,854107,452,1
Simon_mitTrigger_redblue-13-2,X,r,r,r,70,7,492,17,854905,855331,426,1
Simon_mitTrigger_redblue-13-2,X,r,r,r,70,7,493,17,856138,856579,441,1
Simon_mitTrigger_redblue-13-2,T,b,b,b,70,7,494,17,857388,857851,463,1
Simon_mitTrigger_redblue-13-2,T,b,b,b,70,7,495,17,858655,859011,356,1
Simon_mitTrigger_redblue-13-2,T,b,b,b,30,7,496,17,859822,860203,381,1
Simon_mitTrigger_redblue-13-2,X,r,r,r,30,7,497,17,861005,861395,390,1
Simon_mitTrigger_redblue-13-2,T,b,b,b,70,7,498,16,862205,862651,446,1
Simon_mitTrigger_redblue-13-2,X,r,r,r,70,7,499,16,863455,863883,428,1
Simon_mitTrigger_redblue-13-2,X,r,r,r,30,7,500,17,864689,865187,498,1
Simon_mitTrigger_redblue-13-2,T,b,b,b,70,7,501,17,865989,866379,390,1
Simon_mitTrigger_redblue-13-2,X,r,r,r,30,7,502,17,867189,867627,438,1
Simon_mitTrigger_redblue-13-2,T,b,b,b,30,7,503,16,868422,868851,429,1
Simon_mitTrigger_redblue-13-2,X,r,r,r,70,7,504,17,869656,870075,419,1
Simon_mitTrigger_redblue-13-2,T,b,b,b,70,7,505,16,870872,871339,467,1
Simon_mitTrigger_redblue-13-2,T,b,b,b,30,7,506,16,872139,872491,352,1
Simon_mitTrigger_redblue-13-2,T,b,r,b,70,7,507,16,873289,873619,330,0
Simon_mitTrigger_redblue-13-2,X,r,r,r,70,7,508,17,874423,874851,428,1
Simon_mitTrigger_redblue-13-2,X,r,b,r,30,7,509,16,875656,876003,347,0
Simon_mitTrigger_redblue-13-2,X,r,r,r,30,7,510,16,876806,877275,469,1
Simon_mitTrigger_redblue-13-2,X,r,r,r,70,7,511,17,878073,878444,371,1
Simon_mitTrigger_redblue-13-2,X,r,r,r,30,7,512,17,879240,879644,404,1
Simon_mitTrigger_redblue-13-2,T,b,b,b,30,7,513,17,880440,880916,476,1
Simon_mitTrigger_redblue-13-2,T,b,b,b,70,7,514,16,881723,882228,505,1
Simon_mitTrigger_redblue-13-2,X,r,r,r,30,7,515,17,883040,883476,436,1
Simon_mitTrigger_redblue-13-2,T,b,b,b,70,7,516,16,884273,884716,443,1
Simon_mitTrigger_redblue-13-2,T,b,b,b,30,7,517,17,885524,885980,456,1
Simon_mitTrigger_redblue-13-2,T,b,b,b,30,7,518,16,886790,887196,406,1
Simon_mitTrigger_redblue-13-2,X,r,r,r,70,7,519,16,887990,888388,398,1
Simon_mitTrigger_redblue-13-2,X,r,r,r,30,7,520,17,889191,889860,669,1
Simon_mitTrigger_redblue-13-2,T,b,b,b,70,7,521,16,890657,891052,395,1
Simon_mitTrigger_redblue-13-2,X,r,r,r,30,7,522,16,891857,892292,435,1
Simon_mitTrigger_redblue-13-2,T,b,b,b,30,7,523,17,893091,893516,425,1
Simon_mitTrigger_redblue-13-2,X,r,r,r,70,7,524,16,894324,894748,424,1
Simon_mitTrigger_redblue-13-2,X,r,b,r,30,7,525,17,895558,895884,326,0
Simon_mitTrigger_redblue-13-2,X,r,r,r,30,7,526,17,896691,897084,393,1
Simon_mitTrigger_redblue-13-2,X,r,r,r,70,7,527,16,897891,898228,337,1
Simon_mitTrigger_redblue-13-2,T,b,b,b,30,7,528,17,899025,899468,443,1
Simon_mitTrigger_redblue-13-2,X,r,r,r,70,7,529,17,900275,900676,401,1
Simon_mitTrigger_redblue-13-2,X,r,r,r,70,7,530,17,901475,901820,345,1
Simon_mitTrigger_redblue-13-2,T,b,b,b,70,7,531,17,902625,903164,539,1
Simon_mitTrigger_redblue-13-2,X,r,r,r,30,7,532,16,903958,904468,510,1
Simon_mitTrigger_redblue-13-2,X,r,r,r,30,7,533,17,905275,905652,377,1
Simon_mitTrigger_redblue-13-2,T,b,b,b,70,7,534,17,906459,907012,553,1
Simon_mitTrigger_redblue-13-2,T,b,b,b,70,7,535,17,907809,908196,387,1
Simon_mitTrigger_redblue-13-2,T,b,b,b,30,7,536,17,908992,909492,500,1
Simon_mitTrigger_redblue-13-2,X,r,r,r,70,7,537,17,910292,910756,464,1
Simon_mitTrigger_redblue-13-2,X,r,r,r,70,7,538,17,911559,911876,317,1
Simon_mitTrigger_redblue-13-2,T,b,r,b,70,7,539,17,912676,913012,336,0
Simon_mitTrigger_redblue-13-2,X,r,r,r,30,7,540,17,913809,914428,619,1
Simon_mitTrigger_redblue-13-2,X,r,r,r,70,7,541,17,915226,915652,426,1
Simon_mitTrigger_redblue-13-2,X,r,r,r,30,7,542,16,916459,916908,449,1
Simon_mitTrigger_redblue-13-2,X,r,r,r,30,7,543,16,917709,918068,359,1
Simon_mitTrigger_redblue-13-2,T,b,b,b,70,7,544,17,918876,919308,432,1
Simon_mitTrigger_redblue-13-2,T,b,b,b,70,7,545,17,920110,920540,430,1
Simon_mitTrigger_redblue-13-2,T,b,b,b,30,7,546,17,921343,921788,445,1
Simon_mitTrigger_redblue-13-2,X,r,b,r,30,7,547,17,922593,922972,379,0
Simon_mitTrigger_redblue-13-2,T,b,b,b,30,7,548,16,923776,924260,484,1
Simon_mitTrigger_redblue-13-2,T,b,b,b,30,7,549,17,925060,925692,632,1
Simon_mitTrigger_redblue-13-2,T,b,b,b,70,7,550,16,926493,926940,447,1
Simon_mitTrigger_redblue-13-2,X,r,r,r,70,7,551,16,927743,928164,421,1
Simon_mitTrigger_redblue-13-2,T,b,b,b,30,7,552,17,928960,929356,396,1
Simon_mitTrigger_redblue-13-2,T,b,b,b,30,7,553,16,930160,930732,572,1
Simon_mitTrigger_redblue-13-2,T,b,b,b,70,7,554,17,931527,931948,421,1
Simon_mitTrigger_redblue-13-2,X,r,r,r,70,7,555,17,932744,933260,516,1
Simon_mitTrigger_redblue-13-2,X,r,r,r,70,7,556,17,934061,934429,368,1
Simon_mitTrigger_redblue-13-2,T,b,b,b,70,7,557,16,935227,935660,433,1
Simon_mitTrigger_redblue-13-2,T,b,b,b,30,7,558,17,936461,936844,383,1
Simon_mitTrigger_redblue-13-2,T,b,b,b,30,7,559,16,937644,937924,280,1
Simon_mitTrigger_redblue-13-2,X,r,r,r,70,7,560,17,938728,939173,445,1
Simon_mitTrigger_redblue-13-2,T,b,b,b,30,8,561,17,967480,968013,533,1
Simon_mitTrigger_redblue-13-2,X,r,b,r,30,8,562,16,968813,969165,352,0
Simon_mitTrigger_redblue-13-2,T,b,b,b,30,8,563,16,969963,970333,370,1
Simon_mitTrigger_redblue-13-2,T,b,b,b,70,8,564,17,971130,971573,443,1
Simon_mitTrigger_redblue-13-2,T,b,b,b,70,8,565,17,972380,972733,353,1
Simon_mitTrigger_redblue-13-2,T,b,b,b,70,8,566,16,973530,973869,339,1
Simon_mitTrigger_redblue-13-2,X,r,r,r,30,8,567,17,974664,975293,629,1
Simon_mitTrigger_redblue-13-2,T,b,r,b,30,8,568,17,976097,976437,340,0
Simon_mitTrigger_redblue-13-2,X,r,r,r,30,8,569,17,977247,977685,438,1
Simon_mitTrigger_redblue-13-2,T,b,b,b,70,8,570,17,978481,978837,356,1
Simon_mitTrigger_redblue-13-2,X,r,r,r,70,8,571,16,979647,980189,542,1
Simon_mitTrigger_redblue-13-2,T,b,r,b,70,8,572,16,980997,981333,336,0
Simon_mitTrigger_redblue-13-2,T,b,b,b,70,8,573,17,982131,982517,386,1
Simon_mitTrigger_redblue-13-2,X,r,r,r,30,8,574,16,983314,983853,539,1
Simon_mitTrigger_redblue-13-2,T,b,b,b,70,8,575,17,984648,984981,333,1
Simon_mitTrigger_redblue-13-2,X,r,r,r,70,8,576,17,985781,986269,488,1
Simon_mitTrigger_redblue-13-2,T,b,b,b,30,8,577,17,987065,987445,380,1
Simon_mitTrigger_redblue-13-2,T,b,r,b,30,8,578,17,988248,988661,413,0
Simon_mitTrigger_redblue-13-2,T,b,b,b,70,8,579,17,989465,989925,460,1
Simon_mitTrigger_redblue-13-2,X,r,r,r,70,8,580,17,990732,991237,505,1
Simon_mitTrigger_redblue-13-2,X,r,r,r,30,8,581,17,992032,992421,389,1
Simon_mitTrigger_redblue-13-2,T,b,b,b,30,8,582,17,993232,993605,373,1
Simon_mitTrigger_redblue-13-2,X,r,r,r,30,8,583,17,994415,994917,502,1
Simon_mitTrigger_redblue-13-2,X,r,r,r,30,8,584,16,995715,996157,442,1
Simon_mitTrigger_redblue-13-2,T,b,b,b,70,8,585,16,996965,997421,456,1
Simon_mitTrigger_redblue-13-2,T,b,b,b,30,8,586,17,998232,998710,478,1
Simon_mitTrigger_redblue-13-2,X,r,r,r,70,8,587,16,999515,1000125,610,1
Simon_mitTrigger_redblue-13-2,T,b,b,b,70,8,588,16,1000932,1001373,441,1
Simon_mitTrigger_redblue-13-2,T,b,b,b,30,8,589,16,1002182,1002630,448,1
Simon_mitTrigger_redblue-13-2,X,r,r,r,70,8,590,16,1003432,1003862,430,1
Simon_mitTrigger_redblue-13-2,T,b,b,b,70,8,591,17,1004666,1005261,595,1
Simon_mitTrigger_redblue-13-2,X,r,r,r,30,8,592,17,1006066,1006550,484,1
Simon_mitTrigger_redblue-13-2,T,b,b,b,70,8,593,16,1007349,1007782,433,1
Simon_mitTrigger_redblue-13-2,T,b,b,b,30,8,594,17,1008583,1009046,463,1
Simon_mitTrigger_redblue-13-2,X,r,r,r,30,8,595,17,1009850,1010238,388,1
Simon_mitTrigger_redblue-13-2,T,b,b,b,30,8,596,17,1011033,1011534,501,1
Simon_mitTrigger_redblue-13-2,T,b,r,b,70,8,597,17,1012333,1012670,337,0
Simon_mitTrigger_redblue-13-2,X,r,r,r,70,8,598,17,1013467,1013966,499,1
Simon_mitTrigger_redblue-13-2,T,b,b,b,30,8,599,17,1014767,1015182,415,1
Simon_mitTrigger_redblue-13-2,T,b,b,b,30,8,600,16,1015983,1016414,431,1
Simon_mitTrigger_redblue-13-2,X,r,r,r,70,8,601,17,1017217,1017582,365,1
Simon_mitTrigger_redblue-13-2,X,r,b,r,30,8,602,17,1018384,1018734,350,0
Simon_mitTrigger_redblue-13-2,T,b,b,b,70,8,603,17,1019534,1020022,488,1
Simon_mitTrigger_redblue-13-2,T,b,b,b,70,8,604,17,1020817,1021286,469,1
Simon_mitTrigger_redblue-13-2,X,r,r,r,30,8,605,17,1022084,1022630,546,1
Simon_mitTrigger_redblue-13-2,X,r,r,r,70,8,606,17,1023434,1023918,484,1
Simon_mitTrigger_redblue-13-2,X,r,r,r,70,8,607,16,1024717,1025110,393,1
Simon_mitTrigger_redblue-13-2,T,b,b,b,30,8,608,16,1025917,1026374,457,1
Simon_mitTrigger_redblue-13-2,X,r,r,r,30,8,609,16,1027184,1027622,438,1
Simon_mitTrigger_redblue-13-2,T,b,b,b,70,8,610,17,1028418,1028878,460,1
Simon_mitTrigger_redblue-13-2,T,b,b,b,70,8,611,16,1029684,1030070,386,1
Simon_mitTrigger_redblue-13-2,T,b,b,b,30,8,612,17,1030868,1031262,394,1
Simon_mitTrigger_redblue-13-2,X,r,r,r,30,8,613,17,1032068,1032510,442,1
Simon_mitTrigger_redblue-13-2,X,r,r,r,30,8,614,17,1033318,1033862,544,1
Simon_mitTrigger_redblue-13-2,X,r,r,r,70,8,615,17,1034668,1035096,428,1
Simon_mitTrigger_redblue-13-2,X,r,r,r,70,8,616,17,1035902,1036238,336,1
Simon_mitTrigger_redblue-13-2,X,r,r,r,70,8,617,17,1037035,1037326,291,1
Simon_mitTrigger_redblue-13-2,X,r,r,r,70,8,618,17,1038135,1038718,583,1
Simon_mitTrigger_redblue-13-2,T,b,b,b,70,8,619,16,1039518,1039998,480,1
Simon_mitTrigger_redblue-13-2,T,b,b,b,30,8,620,17,1040802,1041294,492,1
Simon_mitTrigger_redblue-13-2,X,r,r,r,70,8,621,17,1042102,1042694,592,1
Simon_mitTrigger_redblue-13-2,X,r,r,r,30,8,622,17,1043502,1043838,336,1
Simon_mitTrigger_redblue-13-2,T,b,b,b,30,8,623,16,1044652,1045086,434,1
Simon_mitTrigger_redblue-13-2,X,r,r,r,70,8,624,17,1045886,1046246,360,1
Simon_mitTrigger_redblue-13-2,X,r,r,r,70,8,625,16,1047052,1047366,314,1
Simon_mitTrigger_redblue-13-2,X,r,r,r,70,8,626,17,1048169,1048470,301,1
Simon_mitTrigger_redblue-13-2,X,r,b,r,30,8,627,17,1049269,1049598,329,0
Simon_mitTrigger_redblue-13-2,X,r,r,r,30,8,628,17,1050403,1050838,435,1
Simon_mitTrigger_redblue-13-2,T,b,b,b,30,8,629,17,1051636,1052110,474,1
Simon_mitTrigger_redblue-13-2,X,r,r,r,70,8,630,16,1052919,1053454,535,1
Simon_mitTrigger_redblue-13-2,T,b,b,b,30,8,631,17,1054253,1054670,417,1
Simon_mitTrigger_redblue-13-2,X,r,r,r,30,8,632,17,1055470,1055974,504,1
Simon_mitTrigger_redblue-13-2,X,r,r,r,30,8,633,17,1056770,1057086,316,1
Simon_mitTrigger_redblue-13-2,X,r,r,r,70,8,634,17,1057887,1058190,303,1
Simon_mitTrigger_redblue-13-2,T,b,b,b,30,8,635,17,1058987,1059390,403,1
Simon_mitTrigger_redblue-13-2,X,r,r,r,70,8,636,17,1060187,1060463,276,1
Simon_mitTrigger_redblue-13-2,T,b,b,b,70,8,637,17,1061270,1061670,400,1
Simon_mitTrigger_redblue-13-2,T,b,r,b,30,8,638,17,1062470,1062822,352,0
Simon_mitTrigger_redblue-13-2,T,b,b,b,70,8,639,16,1063620,1064126,506,1
Simon_mitTrigger_redblue-13-2,X,r,r,r,30,8,640,17,1064937,1065439,502,1
Simon_mitTrigger_redblue-13-2,T,b,b,b,30,9,641,16,1123741,1124151,410,1
Simon_mitTrigger_redblue-13-2,X,r,r,r,30,9,642,16,1124958,1125567,609,1
Simon_mitTrigger_redblue-13-2,X,r,r,r,70,9,643,17,1126375,1126671,296,1
Simon_mitTrigger_redblue-13-2,T,b,b,b,70,9,644,17,1127475,1127879,404,1
Simon_mitTrigger_redblue-13-2,T,b,b,b,30,9,645,17,1128675,1129119,444,1
Simon_mitTrigger_redblue-13-2,X,r,r,r,70,9,646,16,1129925,1130239,314,1
Simon_mitTrigger_redblue-13-2,T,b,b,b,70,9,647,17,1131042,1131432,390,1
Simon_mitTrigger_redblue-13-2,T,b,b,b,30,9,648,17,1132242,1132696,454,1
Simon_mitTrigger_redblue-13-2,T,b,b,b,70,9,649,16,1133492,1133920,428,1
Simon_mitTrigger_redblue-13-2,X,r,r,r,30,9,650,17,1134726,1135184,458,1
Simon_mitTrigger_redblue-13-2,X,r,r,r,30,9,651,16,1135992,1136328,336,1
Simon_mitTrigger_redblue-13-2,T,b,b,b,30,9,652,17,1137126,1137568,442,1
Simon_mitTrigger_redblue-13-2,T,b,b,b,70,9,653,17,1138376,1138792,416,1
Simon_mitTrigger_redblue-13-2,X,r,r,r,70,9,654,17,1139593,1140000,407,1
Simon_mitTrigger_redblue-13-2,T,b,b,b,70,9,655,16,1140809,1141192,383,1
Simon_mitTrigger_redblue-13-2,X,r,b,r,30,9,656,17,1141993,1142416,423,0
Simon_mitTrigger_redblue-13-2,T,b,b,b,30,9,657,16,1143226,1143600,374,1
Simon_mitTrigger_redblue-13-2,X,r,r,r,70,9,658,17,1144410,1144864,454,1
Simon_mitTrigger_redblue-13-2,X,r,r,r,70,9,659,17,1145660,1145976,316,1
Simon_mitTrigger_redblue-13-2,T,b,r,b,70,9,660,17,1146777,1147136,359,0
Simon_mitTrigger_redblue-13-2,X,r,r,r,70,9,661,16,1147943,1148336,393,1
Simon_mitTrigger_redblue-13-2,X,r,r,r,70,9,662,16,1149143,1149528,385,1
Simon_mitTrigger_redblue-13-2,T,b,b,b,30,9,663,17,1150327,1150640,313,1
Simon_mitTrigger_redblue-13-2,T,b,b,b,30,9,664,17,1151444,1151832,388,1
Simon_mitTrigger_redblue-13-2,T,b,b,b,30,9,665,17,1152627,1152960,333,1
Simon_mitTrigger_redblue-13-2,T,b,b,b,70,9,666,16,1153760,1154136,376,1
Simon_mitTrigger_redblue-13-2,T,b,b,b,30,9,667,17,1154944,1155328,384,1
Simon_mitTrigger_redblue-13-2,X,r,r,r,70,9,668,16,1156127,1156464,337,1
Simon_mitTrigger_redblue-13-2,X,r,r,r,70,9,669,17,1157261,1157552,291,1
Simon_mitTrigger_redblue-13-2,T,b,b,b,30,9,670,17,1158361,1158736,375,1
Simon_mitTrigger_redblue-13-2,X,r,r,r,70,9,671,16,1159544,1159896,352,1
Simon_mitTrigger_redblue-13-2,X,r,r,r,30,9,672,16,1160694,1161040,346,1
Simon_mitTrigger_redblue-13-2,X,r,r,r,70,9,673,16,1161844,1162208,364,1
Simon_mitTrigger_redblue-13-2,X,r,r,r,30,9,674,17,1163011,1163400,389,1
Simon_mitTrigger_redblue-13-2,X,r,r,r,70,9,675,17,1164195,1164472,277,1
Simon_mitTrigger_redblue-13-2,T,b,b,b,70,9,676,17,1165278,1165848,570,1
Simon_mitTrigger_redblue-13-2,X,r,r,r,30,9,677,17,1166645,1167064,419,1
Simon_mitTrigger_redblue-13-2,T,b,b,b,30,9,678,16,1167861,1168216,355,1
Simon_mitTrigger_redblue-13-2,X,r,r,r,70,9,679,17,1169012,1169352,340,1
Simon_mitTrigger_redblue-13-2,T,b,b,b,70,9,680,17,1170162,1170528,366,1
Simon_mitTrigger_redblue-13-2,T,b,b,b,70,9,681,16,1171328,1171648,320,1
Simon_mitTrigger_redblue-13-2,X,r,r,r,30,9,682,17,1172445,1172816,371,1
Simon_mitTrigger_redblue-13-2,T,b,b,b,30,9,683,17,1173612,1174016,404,1
Simon_mitTrigger_redblue-13-2,X,r,r,r,30,9,684,17,1174812,1175208,396,1
Simon_mitTrigger_redblue-13-2,X,r,r,r,70,9,685,17,1176012,1176328,316,1
Simon_mitTrigger_redblue-13-2,T,b,b,b,30,9,686,17,1177129,1177824,695,1
Simon_mitTrigger_redblue-13-2,X,r,r,r,70,9,687,17,1178629,1179560,931,1
Simon_mitTrigger_redblue-13-2,X,r,r,r,30,9,688,16,1180362,1180976,614,1
Simon_mitTrigger_redblue-13-2,X,r,r,r,70,9,689,16,1181779,1182160,381,1
Simon_mitTrigger_redblue-13-2,X,r,r,r,30,9,690,17,1182963,1183304,341,1
Simon_mitTrigger_redblue-13-2,T,b,b,b,70,9,691,17,1184113,1184544,431,1
Simon_mitTrigger_redblue-13-2,X,r,r,r,30,9,692,17,1185346,1185744,398,1
Simon_mitTrigger_redblue-13-2,T,b,b,b,70,9,693,17,1186546,1186952,406,1
Simon_mitTrigger_redblue-13-2,X,r,r,r,30,9,694,17,1187763,1188088,325,1
Simon_mitTrigger_redblue-13-2,T,b,r,b,30,9,695,16,1188896,1189264,368,0
Simon_mitTrigger_redblue-13-2,X,r,r,r,70,9,696,17,1190063,1190385,322,1
Simon_mitTrigger_redblue-13-2,T,b,b,b,30,9,697,17,1191180,1191616,436,1
Simon_mitTrigger_redblue-13-2,T,b,b,b,70,9,698,16,1192413,1192968,555,1
Simon_mitTrigger_redblue-13-2,T,b,b,b,70,9,699,16,1193763,1194081,318,1
Simon_mitTrigger_redblue-13-2,T,b,b,b,70,9,700,17,1194880,1195217,337,1
Simon_mitTrigger_redblue-13-2,T,b,b,b,70,9,701,17,1196014,1196305,291,1
Simon_mitTrigger_redblue-13-2,T,b,b,b,70,9,702,17,1197114,1197361,247,1
Simon_mitTrigger_redblue-13-2,X,r,r,r,30,9,703,17,1198164,1198561,397,1
Simon_mitTrigger_redblue-13-2,X,r,r,r,30,9,704,17,1199364,1199697,333,1
Simon_mitTrigger_redblue-13-2,X,r,r,r,30,9,705,16,1200497,1200777,280,1
Simon_mitTrigger_redblue-13-2,X,r,r,r,70,9,706,17,1201581,1201897,316,1
Simon_mitTrigger_redblue-13-2,T,b,r,b,30,9,707,16,1202697,1203073,376,0
Simon_mitTrigger_redblue-13-2,X,r,r,r,30,9,708,17,1203881,1204257,376,1
Simon_mitTrigger_redblue-13-2,T,b,b,b,30,9,709,16,1205064,1205401,337,1
Simon_mitTrigger_redblue-13-2,X,r,r,r,70,9,710,17,1206198,1206465,267,1
Simon_mitTrigger_redblue-13-2,T,b,b,b,30,9,711,16,1207264,1207513,249,1
Simon_mitTrigger_redblue-13-2,X,r,r,r,30,9,712,16,1208314,1208737,423,1
Simon_mitTrigger_redblue-13-2,T,b,b,b,30,9,713,16,1209531,1209881,350,1
Simon_mitTrigger_redblue-13-2,T,b,b,b,70,9,714,16,1210681,1211209,528,1
Simon_mitTrigger_redblue-13-2,T,b,b,b,30,9,715,17,1212015,1212433,418,1
Simon_mitTrigger_redblue-13-2,X,r,r,r,30,9,716,17,1213232,1213657,425,1
Simon_mitTrigger_redblue-13-2,T,b,b,b,70,9,717,17,1214465,1214993,528,1
Simon_mitTrigger_redblue-13-2,X,r,b,r,70,9,718,16,1215798,1216233,435,0
Simon_mitTrigger_redblue-13-2,X,r,r,r,30,9,719,17,1217032,1217569,537,1
Simon_mitTrigger_redblue-13-2,T,b,b,b,70,9,720,16,1218365,1218825,460,1
Simon_mitTrigger_redblue-13-2,X,r,r,r,30,10,721,17,1256368,1256930,562,1
Simon_mitTrigger_redblue-13-2,T,b,b,b,70,10,722,17,1257735,1258082,347,1
Simon_mitTrigger_redblue-13-2,X,r,b,r,70,10,723,17,1258885,1259258,373,0
Simon_mitTrigger_redblue-13-2,X,r,r,r,30,10,724,16,1260068,1260426,358,1
Simon_mitTrigger_redblue-13-2,T,b,b,b,70,10,725,17,1261235,1261538,303,1
Simon_mitTrigger_redblue-13-2,X,r,r,r,30,10,726,16,1262335,1262658,323,1
Simon_mitTrigger_redblue-13-2,T,b,b,b,70,10,727,17,1263452,1263794,342,1
Simon_mitTrigger_redblue-13-2,X,r,b,r,70,10,728,17,1264602,1264962,360,0
Simon_mitTrigger_redblue-13-2,X,r,r,r,70,10,729,17,1265769,1266162,393,1
Simon_mitTrigger_redblue-13-2,T,b,r,b,30,10,730,17,1266969,1267346,377,0
Simon_mitTrigger_redblue-13-2,T,b,b,b,30,10,731,16,1268152,1268538,386,1
Simon_mitTrigger_redblue-13-2,X,r,r,r,70,10,732,17,1269336,1269682,346,1
Simon_mitTrigger_redblue-13-2,T,b,b,b,30,10,733,17,1270486,1270834,348,1
Simon_mitTrigger_redblue-13-2,T,b,b,b,70,10,734,17,1271636,1272074,438,1
Simon_mitTrigger_redblue-13-2,T,b,b,b,70,10,735,16,1272869,1273210,341,1
Simon_mitTrigger_redblue-13-2,T,b,b,b,30,10,736,16,1274019,1274466,447,1
Simon_mitTrigger_redblue-13-2,T,b,b,b,70,10,737,17,1275270,1275674,404,1
Simon_mitTrigger_redblue-13-2,X,r,r,r,30,10,738,17,1276470,1276954,484,1
Simon_mitTrigger_redblue-13-2,T,b,r,b,30,10,739,17,1277753,1278226,473,0
Simon_mitTrigger_redblue-13-2,X,r,r,r,70,10,740,16,1279036,1279386,350,1
Simon_mitTrigger_redblue-13-2,X,r,b,r,30,10,741,17,1280187,1280426,239,0
Simon_mitTrigger_redblue-13-2,X,r,r,r,30,10,742,17,1281237,1281626,389,1
Simon_mitTrigger_redblue-13-2,T,b,b,b,30,10,743,17,1282437,1282834,397,1
Simon_mitTrigger_redblue-13-2,T,b,b,b,70,10,744,17,1283637,1283986,349,1
Simon_mitTrigger_redblue-13-2,X,r,r,r,70,10,745,17,1284787,1285250,463,1
Simon_mitTrigger_redblue-13-2,T,b,b,b,30,10,746,17,1286054,1286514,460,1
Simon_mitTrigger_redblue-13-2,T,b,b,b,30,10,747,16,1287320,1287794,474,1
Simon_mitTrigger_redblue-13-2,T,b,b,b,30,10,748,17,1288604,1289114,510,1
Simon_mitTrigger_redblue-13-2,T,b,b,b,30,10,749,17,1289921,1290210,289,1
Simon_mitTrigger_redblue-13-2,T,b,b,b,30,10,750,17,1291021,1291306,285,1
Simon_mitTrigger_redblue-13-2,T,b,b,b,30,10,751,17,1292104,1292386,282,1
Simon_mitTrigger_redblue-13-2,X,r,b,r,30,10,752,17,1293188,1293450,262,0
Simon_mitTrigger_redblue-13-2,X,r,r,r,30,10,753,16,1294254,1294714,460,1
Simon_mitTrigger_redblue-13-2,X,r,r,r,70,10,754,17,1295521,1295874,353,1
Simon_mitTrigger_redblue-13-2,X,r,r,r,70,10,755,17,1296671,1296962,291,1
Simon_mitTrigger_redblue-13-2,T,b,b,b,70,10,756,16,1297771,1298234,463,1
Simon_mitTrigger_redblue-13-2,T,b,b,b,70,10,757,17,1299038,1299362,324,1
Simon_mitTrigger_redblue-13-2,X,r,b,r,70,10,758,16,1300171,1300514,343,0
Simon_mitTrigger_redblue-13-2,T,b,b,b,70,10,759,16,1301321,1301778,457,1
Simon_mitTrigger_redblue-13-2,X,r,r,r,70,10,760,16,1302588,1302970,382,1
Simon_mitTrigger_redblue-13-2,X,r,r,r,30,10,761,17,1303772,1304114,342,1
Simon_mitTrigger_redblue-13-2,X,r,r,r,70,10,762,17,1304922,1305242,320,1
Simon_mitTrigger_redblue-13-2,X,r,r,r,30,10,763,16,1306038,1306378,340,1
Simon_mitTrigger_redblue-13-2,T,b,b,b,70,10,764,17,1307189,1307618,429,1
Simon_mitTrigger_redblue-13-2,T,b,b,b,30,10,765,17,1308422,1309018,596,1
Simon_mitTrigger_redblue-13-2,X,r,r,r,30,10,766,17,1309822,1310242,420,1
Simon_mitTrigger_redblue-13-2,T,b,r,b,70,10,767,17,1311039,1311354,315,0
Simon_mitTrigger_redblue-13-2,T,b,b,b,70,10,768,17,1312156,1312530,374,1
Simon_mitTrigger_redblue-13-2,X,r,r,r,70,10,769,17,1313339,1313778,439,1
Simon_mitTrigger_redblue-13-2,T,b,b,b,30,10,770,17,1314589,1315042,453,1
Simon_mitTrigger_redblue-13-2,X,r,r,r,70,10,771,16,1315839,1316234,395,1
Simon_mitTrigger_redblue-13-2,X,r,b,r,30,10,772,16,1317039,1317298,259,0
Simon_mitTrigger_redblue-13-2,T,b,r,b,70,10,773,17,1318106,1318466,360,0
Simon_mitTrigger_redblue-13-2,X,r,r,r,70,10,774,17,1319273,1319642,369,1
Simon_mitTrigger_redblue-13-2,X,r,r,r,30,10,775,17,1320440,1320914,474,1
Simon_mitTrigger_redblue-13-2,T,b,b,b,30,10,776,17,1321723,1322107,384,1
Simon_mitTrigger_redblue-13-2,T,b,b,b,30,10,777,16,1322906,1323291,385,1
Simon_mitTrigger_redblue-13-2,X,r,r,r,30,10,778,17,1324090,1324499,409,1
Simon_mitTrigger_redblue-13-2,T,b,b,b,30,10,779,17,1325307,1325723,416,1
Simon_mitTrigger_redblue-13-2,X,r,r,r,70,10,780,16,1326523,1326907,384,1
Simon_mitTrigger_redblue-13-2,T,b,b,b,30,10,781,17,1327707,1328371,664,1
Simon_mitTrigger_redblue-13-2,X,r,r,r,70,10,782,17,1329174,1329515,341,1
Simon_mitTrigger_redblue-13-2,X,r,r,r,70,10,783,17,1330324,1330643,319,1
Simon_mitTrigger_redblue-13-2,X,r,b,r,30,10,784,16,1331440,1331763,323,0
Simon_mitTrigger_redblue-13-2,X,r,r,r,30,10,785,17,1332574,1332939,365,1
Simon_mitTrigger_redblue-13-2,X,r,r,r,70,10,786,16,1333757,1334035,278,1
Simon_mitTrigger_redblue-13-2,T,b,b,b,70,10,787,17,1334841,1335251,410,1
Simon_mitTrigger_redblue-13-2,X,r,r,r,70,10,788,16,1336057,1336451,394,1
Simon_mitTrigger_redblue-13-2,T,b,b,b,70,10,789,16,1337257,1337643,386,1
Simon_mitTrigger_redblue-13-2,T,b,b,b,70,10,790,17,1338441,1338811,370,1
Simon_mitTrigger_redblue-13-2,X,r,r,r,30,10,791,17,1339608,1340195,587,1
Simon_mitTrigger_redblue-13-2,T,b,b,b,30,10,792,17,1340991,1341379,388,1
Simon_mitTrigger_redblue-13-2,X,r,r,r,30,10,793,17,1342175,1342627,452,1
Simon_mitTrigger_redblue-13-2,T,b,b,b,70,10,794,17,1343425,1343867,442,1
Simon_mitTrigger_redblue-13-2,X,r,r,r,70,10,795,17,1344675,1345059,384,1
Simon_mitTrigger_redblue-13-2,T,b,b,b,70,10,796,17,1345858,1346219,361,1
Simon_mitTrigger_redblue-13-2,T,b,b,b,70,10,797,17,1347025,1347491,466,1
Simon_mitTrigger_redblue-13-2,X,r,r,r,30,10,798,17,1348292,1348771,479,1
Simon_mitTrigger_redblue-13-2,T,b,b,b,30,10,799,17,1349575,1350051,476,1
Simon_mitTrigger_redblue-13-2,X,r,r,r,30,10,800,17,1350859,1351283,424,1
