Congruency_condition,Target_position,Target_identity,Correct_key,Parallel_signal,blocks_loop.thisRepN,blocks_loop.thisTrialN,blocks_loop.thisN,blocks_loop.thisIndex,trials_loop.thisRepN,trials_loop.thisTrialN,trials_loop.thisN,trials_loop.thisIndex,textPresent_welcome_message.started,keyPress_SPACE_bar.started,textExperiment_start_confirmation.started,textPresent_welcome_message.stopped,keyPress_SPACE_bar.keys,keyPress_SPACE_bar.rt,textBlock_intro.started,keyBlock_start.started,keyBlock_start.keys,keyBlock_start.rt,textJitter_blank_screen.started,textJitter_blank_screen.stopped,textFixation_cross_I.started,textFixation_cross_II.started,textTarget_presentation.started,button_resp.started,button_resp.keys,button_resp.corr,button_resp.rt,textReaction_feedback.started,textISI_blank_screen.started,textFixation_cross_I.stopped,textReaction_feedback.stopped,textISI_blank_screen.stopped,textGoodbye_message.started,keyEnd_experiment.started,textGoodbye_message.stopped,keyEnd_experiment.keys,keyEnd_experiment.corr,keyEnd_experiment.rt,Participant (no.: ###),Session (no.: ###),Gender (m/f/d),Handedness (r/l),Height (cm),Weight (kg),date,expName,psychopyVersion,participant,frameRate,
,,,,,,,,,,,,,11.265722599811852,11.265722599811852,13.221949299797416,13.265710999956354,space,102.73442430002615,,,,,,,,,,,,,,,,,,,,,,,,,999,,,,,,2023-02-01_13h51.33.741,Exp_1_Simon_task,2022.2.4,999,143.32417524367997,
Left_congruent,"(-0.4, 0)",T,4,2,0,0,0,0,0,0,0,52,,,,,,,114.02883949992247,114.02883949992247,space,2.1783947001677006,116.24026909982786,117.24348849989474,117.24348849989474,117.42404509987682,117.42404509987682,117.42404509987682,4,1,0.3288368000648916,117.75988799985498,118.11393399978988,,,,,,,,,,999,,,,,,2023-02-01_13h51.33.741,Exp_1_Simon_task,2022.2.4,999,143.32417524367997,
Right_congruent,"(0.4, 0)",X,5,8,0,0,0,0,0,1,1,50,,,,,,,,,,,118.31525059998967,119.31524439994246,119.31524439994246,119.51767019997351,119.51767019997351,119.51767019997351,5,1,0.263497699983418,119.78857949981466,120.14358399994671,,,,,,,,,,999,,,,,,2023-02-01_13h51.33.741,Exp_1_Simon_task,2022.2.4,999,143.32417524367997,
Right_incongruent,"(-0.4, 0)",X,5,16,0,0,0,0,0,2,2,63,,,,,,,,,,,120.34450879995711,,121.33958189981058,121.53782749990933,121.53782749990933,121.53782749990933,4,0,0.23054059990681708,121.7763561999891,122.12904859986156,,,,,,,,,,999,,,,,,2023-02-01_13h51.33.741,Exp_1_Simon_task,2022.2.4,999,143.32417524367997,
Left_incongruent,"(0.4, 0)",T,4,4,0,0,0,0,0,3,3,61,,,,,,,,,,,122.3309539000038,123.3290904997848,123.3290904997848,123.52636099979281,123.52636099979281,123.52636099979281,5,0,0.38309839996509254,123.92454069992527,124.2683795997873,,,,,,,,,,999,,,,,,2023-02-01_13h51.33.741,Exp_1_Simon_task,2022.2.4,999,143.32417524367997,
Right_incongruent,"(-0.4, 0)",X,5,16,0,0,0,0,0,4,4,71,,,,,,,,,,,124.4683989000041,125.46943409997039,125.46943409997039,125.67025959980674,125.67025959980674,125.67025959980674,4,0,1.1123444000259042,126.79046769998968,127.1436245997902,,,,,,,,,,999,,,,,,2023-02-01_13h51.33.741,Exp_1_Simon_task,2022.2.4,999,143.32417524367997,
Right_congruent,"(0.4, 0)",X,5,8,0,0,0,0,0,5,5,62,,,,,,,,,,,127.34646839997731,128.34790449985303,128.34790449985303,128.53989589982666,128.53989589982666,128.53989589982666,5,1,0.5063994000665843,129.05191039992496,129.40739079983905,,,,,,,,,,999,,,,,,2023-02-01_13h51.33.741,Exp_1_Simon_task,2022.2.4,999,143.32417524367997,
Right_incongruent,"(-0.4, 0)",X,5,16,0,0,0,0,0,6,6,59,,,,,,,,,,,129.6140712997876,130.61887739994563,130.61887739994563,130.80574969993904,130.80574969993904,130.80574969993904,4,0,0.6549976000096649,131.4676891998388,131.82192709995434,,,,,,,,,,999,,,,,,2023-02-01_13h51.33.741,Exp_1_Simon_task,2022.2.4,999,143.32417524367997,
Right_incongruent,"(-0.4, 0)",X,5,16,0,0,0,0,0,7,7,19,,,,,,,,,,,132.02311959979124,133.02312839985825,133.02312839985825,133.22450469993055,133.22450469993055,133.22450469993055,5,1,0.5557694998569787,133.787399899913,134.1428923998028,,,,,,,,,,999,,,,,,2023-02-01_13h51.33.741,Exp_1_Simon_task,2022.2.4,999,143.32417524367997,
Right_incongruent,"(-0.4, 0)",X,5,16,0,0,0,0,0,8,8,55,,,,,,,,,,,134.35030259983614,135.35588879999705,135.35588879999705,135.53817670000717,135.53817670000717,135.53817670000717,5,1,0.43115610000677407,135.97485229978338,136.32988669979386,,,,,,,,,,999,,,,,,2023-02-01_13h51.33.741,Exp_1_Simon_task,2022.2.4,999,143.32417524367997,
Left_incongruent,"(0.4, 0)",T,4,4,0,0,0,0,0,9,9,69,,,,,,,,,,,136.5319246998988,,137.52483859984204,137.7263946000021,137.7263946000021,137.7263946000021,5,0,0.569324400043115,138.3027215998154,138.65454149991274,137.7263946000021,,,,,,,,,999,,,,,,2023-02-01_13h51.33.741,Exp_1_Simon_task,2022.2.4,999,143.32417524367997,
Left_congruent,"(-0.4, 0)",T,4,2,0,0,0,0,0,10,10,20,,,,,,,,,,,138.85832419991493,,139.84982409980148,140.05279319989495,140.05279319989495,140.05279319989495,4,1,0.9723169000353664,141.03082339977846,141.3893522999715,140.05279319989495,141.38253879989497,,,,,,,,999,,,,,,2023-02-01_13h51.33.741,Exp_1_Simon_task,2022.2.4,999,143.32417524367997,
Left_incongruent,"(0.4, 0)",T,4,4,0,0,0,0,0,11,11,57,,,,,,,,,,,141.5850683997851,142.5853596997913,142.5853596997913,142.78667699988,142.78667699988,142.78667699988,4,1,1.0287339000497013,143.8214738999959,144.17709609982558,,,,,,,,,,999,,,,,,2023-02-01_13h51.33.741,Exp_1_Simon_task,2022.2.4,999,143.32417524367997,
Left_congruent,"(-0.4, 0)",T,4,2,0,0,0,0,0,12,12,76,,,,,,,,,,,144.37731429981068,145.37795859994367,145.37795859994367,145.58009859989397,145.58009859989397,145.58009859989397,5,0,0.6522220000624657,146.23870250000618,146.59358629980125,,,,,,,,,,999,,,,,,2023-02-01_13h51.33.741,Exp_1_Simon_task,2022.2.4,999,143.32417524367997,
Right_incongruent,"(-0.4, 0)",X,5,16,0,0,0,0,0,13,13,3,,,,,,,,,,,146.7940452999901,147.79575589997694,147.79575589997694,147.99671949981712,147.99671949981712,147.99671949981712,4,0,1.194049100158736,149.19884839979932,149.54823809978552,,,,,,,,,,999,,,,,,2023-02-01_13h51.33.741,Exp_1_Simon_task,2022.2.4,999,143.32417524367997,
Left_incongruent,"(0.4, 0)",T,4,4,0,0,0,0,0,14,14,45,,,,,,,,,,,149.75285899988376,,150.74551759986207,150.94814999983646,150.94814999983646,150.94814999983646,5,0,0.45864870003424585,151.41518079978414,151.76463719992898,,,,,,,,,,999,,,,,,2023-02-01_13h51.33.741,Exp_1_Simon_task,2022.2.4,999,143.32417524367997,
Left_incongruent,"(0.4, 0)",T,4,4,0,0,0,0,0,15,15,77,,,,,,,,,,,151.96479159989394,152.96715559996665,152.96715559996665,153.16834999993443,153.16834999993443,153.16834999993443,4,1,0.7777734000701457,153.95301099983044,154.30726059991866,,,,,,,,,,999,,,,,,2023-02-01_13h51.33.741,Exp_1_Simon_task,2022.2.4,999,143.32417524367997,
Left_congruent,"(-0.4, 0)",T,4,2,0,0,0,0,0,16,16,64,,,,,,,,,,,154.5085883999709,,155.49465189990588,155.69617259991355,155.69617259991355,155.69617259991355,4,1,0.3407634000759572,156.04379679984413,156.39786689984612,155.69617259991355,,,,,,,,,999,,,,,,2023-02-01_13h51.33.741,Exp_1_Simon_task,2022.2.4,999,143.32417524367997,
Right_incongruent,"(-0.4, 0)",X,5,16,0,0,0,0,0,17,17,75,,,,,,,,,,,156.60193469980732,157.60638659982942,157.60638659982942,157.8081975998357,157.8081975998357,157.8081975998357,5,1,0.43088150001131,158.2527206998784,158.59929489996284,,,,,,,,,,999,,,,,,2023-02-01_13h51.33.741,Exp_1_Simon_task,2022.2.4,999,143.32417524367997,
Left_incongruent,"(0.4, 0)",T,4,4,0,0,0,0,0,18,18,65,,,,,,,,,,,158.80484509980306,159.8083605999127,159.8083605999127,160.01080939988606,160.01080939988606,160.01080939988606,4,1,0.6028029001317918,160.62616729992442,160.97407929995097,,,,,,,,,,999,,,,,,2023-02-01_13h51.33.741,Exp_1_Simon_task,2022.2.4,999,143.32417524367997,
Left_congruent,"(-0.4, 0)",T,4,2,0,0,0,0,0,19,19,44,,,,,,,,,,,161.17738469992764,162.1797026998829,162.1797026998829,162.37761049997061,162.37761049997061,162.37761049997061,4,1,0.8562022000551224,163.24339329986833,163.59910979983397,,,,,,,,,,999,,,,,,2023-02-01_13h51.33.741,Exp_1_Simon_task,2022.2.4,999,143.32417524367997,
Right_incongruent,"(-0.4, 0)",X,5,16,0,0,0,0,0,20,20,43,,,,,,,,,,,163.79393669986166,164.7936721998267,164.7936721998267,164.99747389997356,164.99747389997356,164.99747389997356,5,1,0.4149891999550164,165.41895069996826,165.7739543998614,,,,,,,,,,999,,,,,,2023-02-01_13h51.33.741,Exp_1_Simon_task,2022.2.4,999,143.32417524367997,
Right_congruent,"(0.4, 0)",X,5,8,0,0,0,0,0,21,21,42,,,,,,,,,,,165.97411459987052,166.97349579981528,166.97349579981528,167.17611889983527,167.17611889983527,167.17611889983527,5,1,0.7438554000109434,167.92627339996397,168.28444319986738,,168.27698989980854,,,,,,,,999,,,,,,2023-02-01_13h51.33.741,Exp_1_Simon_task,2022.2.4,999,143.32417524367997,
Right_congruent,"(0.4, 0)",X,5,8,0,0,0,0,0,22,22,70,,,,,,,,,,,168.48194529977627,,169.47474729991518,169.67920209979638,169.67920209979638,169.67920209979638,5,1,0.28922239993698895,169.97410699981265,170.32779529993422,,,,,,,,,,999,,,,,,2023-02-01_13h51.33.741,Exp_1_Simon_task,2022.2.4,999,143.32417524367997,
Right_congruent,"(0.4, 0)",X,5,8,0,0,0,0,0,23,23,34,,,,,,,,,,,170.52918859990314,171.53129639988765,171.53129639988765,171.72568819997832,171.72568819997832,171.72568819997832,5,1,0.3264119999948889,172.0596474998165,172.41244549979456,,,,,,,,,,999,,,,,,2023-02-01_13h51.33.741,Exp_1_Simon_task,2022.2.4,999,143.32417524367997,
Right_incongruent,"(-0.4, 0)",X,5,16,0,0,0,0,0,24,24,27,,,,,,,,,,,172.61515969992615,173.6149142999202,173.6149142999202,173.8119049000088,173.8119049000088,173.8119049000088,5,1,0.4715748999733478,174.29092149995267,174.64741459977813,,174.64045349997468,,,,,,,,999,,,,,,2023-02-01_13h51.33.741,Exp_1_Simon_task,2022.2.4,999,143.32417524367997,
Right_congruent,"(0.4, 0)",X,5,8,0,0,0,0,0,25,25,18,,,,,,,,,,,174.84168339986354,,175.84152369992808,176.0431760000065,176.0431760000065,176.0431760000065,5,1,0.45266870013438165,176.50285919988528,176.85688129998744,,,,,,,,,,999,,,,,,2023-02-01_13h51.33.741,Exp_1_Simon_task,2022.2.4,999,143.32417524367997,
Left_congruent,"(-0.4, 0)",T,4,2,0,0,0,0,0,26,26,32,,,,,,,,,,,177.05829989979975,178.05827779998071,178.05827779998071,178.2582243999932,178.2582243999932,178.2582243999932,4,1,1.000284899957478,179.26900999993086,179.62066119979136,,,,,,,,,,999,,,,,,2023-02-01_13h51.33.741,Exp_1_Simon_task,2022.2.4,999,143.32417524367997,
Left_congruent,"(-0.4, 0)",T,4,2,0,0,0,0,0,27,27,8,,,,,,,,,,,179.82116829999723,180.8221876998432,180.8221876998432,181.02336899982765,181.02336899982765,181.02336899982765,4,1,0.6597842001356184,181.69090719986707,182.04458869993687,,,,,,,,,,999,,,,,,2023-02-01_13h51.33.741,Exp_1_Simon_task,2022.2.4,999,143.32417524367997,
Right_incongruent,"(-0.4, 0)",X,5,16,0,0,0,0,0,28,28,31,,,,,,,,,,,182.24601769982837,183.25318959983997,183.25318959983997,183.4436969999224,183.4436969999224,183.4436969999224,4,0,0.5790012998040766,184.02969879982993,184.38411759980954,,,,,,,,,,999,,,,,,2023-02-01_13h51.33.741,Exp_1_Simon_task,2022.2.4,999,143.32417524367997,
Right_congruent,"(0.4, 0)",X,5,8,0,0,0,0,0,29,29,78,,,,,,,,,,,184.58505849982612,185.59042799985036,185.59042799985036,185.78133239992894,185.78133239992894,185.78133239992894,4,0,1.0401860000565648,186.82900979998522,187.18275869986974,,,,,,,,,,999,,,,,,2023-02-01_13h51.33.741,Exp_1_Simon_task,2022.2.4,999,143.32417524367997,
Left_incongruent,"(0.4, 0)",T,4,4,0,0,0,0,0,30,30,1,,,,,,,,,,,187.38442189991474,188.38987189996988,188.38987189996988,188.58462589979172,188.58462589979172,188.58462589979172,5,0,0.3971800000872463,188.9894723999314,189.34288649982773,,,,,,,,,,999,,,,,,2023-02-01_13h51.33.741,Exp_1_Simon_task,2022.2.4,999,143.32417524367997,
Right_incongruent,"(-0.4, 0)",X,5,16,0,0,0,0,0,31,31,7,,,,,,,,,,,189.55242409999482,190.54980459995568,190.54980459995568,190.74692409997806,190.74692409997806,190.74692409997806,4,0,0.4848325999919325,191.24015319999307,191.59402899979614,,,,,,,,,,999,,,,,,2023-02-01_13h51.33.741,Exp_1_Simon_task,2022.2.4,999,143.32417524367997,
Left_congruent,"(-0.4, 0)",T,4,2,0,0,0,0,0,32,32,40,,,,,,,,,,,191.79069569986314,192.79290409991518,192.79290409991518,192.9943123999983,192.9943123999983,192.9943123999983,5,0,0.39649059996008873,193.39832219993696,193.75223220000044,,,,,,,,,,999,,,,,,2023-02-01_13h51.33.741,Exp_1_Simon_task,2022.2.4,999,143.32417524367997,
Left_congruent,"(-0.4, 0)",T,4,2,0,0,0,0,0,33,33,56,,,,,,,,,,,193.95299579994753,,194.9461970999837,195.1470027999021,195.1470027999021,195.1470027999021,4,1,0.3573080999776721,195.51003159978427,195.8656671999488,195.1470027999021,,,,,,,,,999,,,,,,2023-02-01_13h51.33.741,Exp_1_Simon_task,2022.2.4,999,143.32417524367997,
Left_incongruent,"(0.4, 0)",T,4,4,0,0,0,0,0,34,34,37,,,,,,,,,,,196.06404359987937,,197.05702239996754,197.25880439998582,197.25880439998582,197.25880439998582,5,0,0.2569365000817925,197.52379539981484,197.87587809981778,197.25880439998582,,,,,,,,,999,,,,,,2023-02-01_13h51.33.741,Exp_1_Simon_task,2022.2.4,999,143.32417524367997,
Right_congruent,"(0.4, 0)",X,5,8,0,0,0,0,0,35,35,74,,,,,,,,,,,198.07391329994425,199.0768954998348,199.0768954998348,199.27917869994417,199.27917869994417,199.27917869994417,5,1,0.5856378001626581,199.87552639981732,200.2247290997766,,,,,,,,,,999,,,,,,2023-02-01_13h51.33.741,Exp_1_Simon_task,2022.2.4,999,143.32417524367997,
Right_congruent,"(0.4, 0)",X,5,8,0,0,0,0,0,36,36,38,,,,,,,,,,,200.42783669987693,201.42912209988572,201.42912209988572,201.6300654998049,201.6300654998049,201.6300654998049,5,1,0.32947349990718067,201.96704489993863,202.32056299992837,,,,,,,,,,999,,,,,,2023-02-01_13h51.33.741,Exp_1_Simon_task,2022.2.4,999,143.32417524367997,
Right_congruent,"(0.4, 0)",X,5,8,0,0,0,0,0,37,37,6,,,,,,,,,,,202.5225511000026,203.52909389999695,203.52909389999695,203.7235381999053,203.7235381999053,203.7235381999053,5,1,0.36113400012254715,204.09157669986598,204.44097009999678,,,204.63946320000105,,,,,,,999,,,,,,2023-02-01_13h51.33.741,Exp_1_Simon_task,2022.2.4,999,143.32417524367997,
Right_congruent,"(0.4, 0)",X,5,8,0,0,0,0,0,38,38,26,,,,,,,,,,,204.63946320000105,205.63974479981698,205.63974479981698,205.8406568998471,205.8406568998471,205.8406568998471,5,1,0.4239632000681013,206.27363139996305,206.62682789983228,205.8406568998471,,,,,,,,,999,,,,,,2023-02-01_13h51.33.741,Exp_1_Simon_task,2022.2.4,999,143.32417524367997,
Right_congruent,"(0.4, 0)",X,5,8,0,0,0,0,0,39,39,30,,,,,,,,,,,206.82830880000256,207.82786739990115,207.82786739990115,208.03192479978316,208.03192479978316,208.03192479978316,5,1,0.3730373999569565,208.41208859998733,208.76460130000487,,,,,,,,,,999,,,,,,2023-02-01_13h51.33.741,Exp_1_Simon_task,2022.2.4,999,143.32417524367997,
Left_incongruent,"(0.4, 0)",T,4,4,0,0,0,0,0,40,40,53,,,,,,,,,,,208.96697709988803,209.9668382999953,209.9668382999953,210.1695005998481,210.1695005998481,210.1695005998481,4,1,0.3730885998811573,210.5500528998673,210.90369639988057,,,,,,,,,,999,,,,,,2023-02-01_13h51.33.741,Exp_1_Simon_task,2022.2.4,999,143.32417524367997,
Left_congruent,"(-0.4, 0)",T,4,2,0,0,0,0,0,41,41,0,,,,,,,,,,,211.10421889997087,212.1054347997997,212.1054347997997,212.30589479999617,212.30589479999617,212.30589479999617,4,1,0.5637638999614865,212.8761002998799,213.23027509986423,,,,,,,,,,999,,,,,,2023-02-01_13h51.33.741,Exp_1_Simon_task,2022.2.4,999,143.32417524367997,
Left_congruent,"(-0.4, 0)",T,4,2,0,0,0,0,0,42,42,36,,,,,,,,,,,213.43130589998327,214.43216689978726,214.43216689978726,214.63295439979993,214.63295439979993,214.63295439979993,4,1,0.23991620005108416,214.8819405999966,215.23630729992874,,,,,,,,,,999,,,,,,2023-02-01_13h51.33.741,Exp_1_Simon_task,2022.2.4,999,143.32417524367997,
Left_incongruent,"(0.4, 0)",T,4,4,0,0,0,0,0,43,43,17,,,,,,,,,,,215.4379863999784,,216.4254440998193,216.63298359978944,216.63298359978944,216.63298359978944,5,0,0.37303279992192984,217.02022549998946,217.36974329990335,,,,,,,,,,999,,,,,,2023-02-01_13h51.33.741,Exp_1_Simon_task,2022.2.4,999,143.32417524367997,
Right_congruent,"(0.4, 0)",X,5,8,0,0,0,0,0,44,44,58,,,,,,,,,,,217.56743239983916,218.57172829983756,218.57172829983756,218.77481829980388,218.77481829980388,218.77481829980388,5,1,0.5215972999576479,219.3054793998599,219.66073629981838,,,,,,,,,,999,,,,,,2023-02-01_13h51.33.741,Exp_1_Simon_task,2022.2.4,999,143.32417524367997,
Left_congruent,"(-0.4, 0)",T,4,2,0,0,0,0,0,45,45,48,,,,,,,,,,,219.85424159979448,220.85501549998298,220.85501549998298,221.05829969979823,221.05829969979823,221.05829969979823,4,1,0.47783079999499023,221.54276989982463,221.89716749987565,,,,,,,,,,999,,,,,,2023-02-01_13h51.33.741,Exp_1_Simon_task,2022.2.4,999,143.32417524367997,
Left_incongruent,"(0.4, 0)",T,4,4,0,0,0,0,0,46,46,41,,,,,,,,,,,222.09800049988553,,223.09158559981734,223.29531749989837,223.29531749989837,223.29531749989837,4,1,0.5604407000355422,223.86106679984368,224.21657389984466,223.29531749989837,,,,,,,,,999,,,,,,2023-02-01_13h51.33.741,Exp_1_Simon_task,2022.2.4,999,143.32417524367997,
Left_congruent,"(-0.4, 0)",T,4,2,0,0,0,0,0,47,47,28,,,,,,,,,,,224.41819110000506,225.4174667999614,225.4174667999614,225.61963029997423,225.61963029997423,225.61963029997423,4,1,0.4098831999581307,226.0361830999609,226.39041109988466,,,,,,,,,,999,,,,,,2023-02-01_13h51.33.741,Exp_1_Simon_task,2022.2.4,999,143.32417524367997,
Right_incongruent,"(-0.4, 0)",X,5,16,0,0,0,0,0,48,48,35,,,,,,,,,,,226.59010249981657,227.58998089982197,227.58998089982197,227.79099159990437,227.79099159990437,227.79099159990437,5,1,0.3926341999322176,228.19168960000388,228.5421032998711,,,,,,,,,,999,,,,,,2023-02-01_13h51.33.741,Exp_1_Simon_task,2022.2.4,999,143.32417524367997,
Right_congruent,"(0.4, 0)",X,5,8,0,0,0,0,0,49,49,66,,,,,,,,,,,228.74307219986804,,229.7360736997798,229.93739659991115,229.93739659991115,229.93739659991115,5,1,0.35466589988209307,230.3066620999016,230.65281839994714,229.93739659991115,,,,,,,,,999,,,,,,2023-02-01_13h51.33.741,Exp_1_Simon_task,2022.2.4,999,143.32417524367997,
Left_incongruent,"(0.4, 0)",T,4,4,0,0,0,0,0,50,50,73,,,,,,,,,,,230.8539765998721,231.85429089982063,231.85429089982063,232.0495987997856,232.0495987997856,232.0495987997856,5,0,0.5066519000101835,232.56983519997448,232.91622299980372,,,,,,,,,,999,,,,,,2023-02-01_13h51.33.741,Exp_1_Simon_task,2022.2.4,999,143.32417524367997,
Right_incongruent,"(-0.4, 0)",X,5,16,0,0,0,0,0,51,51,15,,,,,,,,,,,233.11884029977955,234.11737150000408,234.11737150000408,234.31933079985902,234.31933079985902,234.31933079985902,4,0,0.47345229983329773,234.80145329982042,235.1536072997842,,,,,,,,,,999,,,,,,2023-02-01_13h51.33.741,Exp_1_Simon_task,2022.2.4,999,143.32417524367997,
Left_congruent,"(-0.4, 0)",T,4,2,0,0,0,0,0,52,52,68,,,,,,,,,,,235.35544139984995,236.35560719994828,236.35560719994828,236.56379159982316,236.56379159982316,236.56379159982316,4,1,0.6731178001500666,237.2487934997771,237.5998395998031,,,,,,,,,,999,,,,,,2023-02-01_13h51.33.741,Exp_1_Simon_task,2022.2.4,999,143.32417524367997,
Left_incongruent,"(0.4, 0)",T,4,4,0,0,0,0,0,53,53,33,,,,,,,,,,,237.79994099983014,238.80112989991903,238.80112989991903,239.00288879987784,239.00288879987784,239.00288879987784,4,1,0.4011819001752883,239.4094894998707,239.76751659996808,,239.76036799978465,,,,,,,,999,,,,,,2023-02-01_13h51.33.741,Exp_1_Simon_task,2022.2.4,999,143.32417524367997,
Left_incongruent,"(0.4, 0)",T,4,4,0,0,0,0,0,54,54,13,,,,,,,,,,,239.96466009994037,240.96454809978604,240.96454809978604,241.1676196998451,241.1676196998451,241.1676196998451,4,1,0.47940399986691773,241.6538740999531,242.00835069990717,,,,,,,,,,999,,,,,,2023-02-01_13h51.33.741,Exp_1_Simon_task,2022.2.4,999,143.32417524367997,
Left_congruent,"(-0.4, 0)",T,4,2,0,0,0,0,0,55,55,60,,,,,,,,,,,242.20820809993893,,243.2021715999581,243.40371179999784,243.40371179999784,243.40371179999784,4,1,0.423257399816066,243.8335278998129,244.18731660000049,243.40371179999784,,,,,,,,,999,,,,,,2023-02-01_13h51.33.741,Exp_1_Simon_task,2022.2.4,999,143.32417524367997,
Left_incongruent,"(0.4, 0)",T,4,4,0,0,0,0,0,56,56,5,,,,,,,,,,,244.38854799978435,245.38790349988267,245.38790349988267,245.5893696998246,245.5893696998246,245.5893696998246,4,1,0.3895334000699222,245.98538339999504,246.34093929990195,,,,,,,,,,999,,,,,,2023-02-01_13h51.33.741,Exp_1_Simon_task,2022.2.4,999,143.32417524367997,
Right_incongruent,"(-0.4, 0)",X,5,16,0,0,0,0,0,57,57,11,,,,,,,,,,,246.54335359996185,247.5418614000082,247.5418614000082,247.74214809993282,247.74214809993282,247.74214809993282,5,1,0.5293931998312473,248.2782649998553,248.6325270999223,,,,,,,,,,999,,,,,,2023-02-01_13h51.33.741,Exp_1_Simon_task,2022.2.4,999,143.32417524367997,
Left_incongruent,"(0.4, 0)",T,4,4,0,0,0,0,0,58,58,25,,,,,,,,,,,248.83400589996018,249.83291789982468,249.83291789982468,250.03509569982998,250.03509569982998,250.03509569982998,5,0,0.9997427999041975,251.04278039978817,251.39670239994302,,,,,,,,,,999,,,,,,2023-02-01_13h51.33.741,Exp_1_Simon_task,2022.2.4,999,143.32417524367997,
Right_incongruent,"(-0.4, 0)",X,5,16,0,0,0,0,0,59,59,23,,,,,,,,,,,251.59655129979365,,252.58977059996687,252.79116859985515,252.79116859985515,252.79116859985515,4,0,0.4943758000154048,253.2919270999264,253.64993319986388,,253.64291920000687,,,,,,,,999,,,,,,2023-02-01_13h51.33.741,Exp_1_Simon_task,2022.2.4,999,143.32417524367997,
Right_congruent,"(0.4, 0)",X,5,8,0,0,0,0,0,60,60,46,,,,,,,,,,,253.8460893998854,254.84680559998378,254.84680559998378,255.0483438000083,255.0483438000083,255.0483438000083,5,1,0.6384563001338392,255.693187299883,256.0475135999732,,,,,,,,,,999,,,,,,2023-02-01_13h51.33.741,Exp_1_Simon_task,2022.2.4,999,143.32417524367997,
Right_incongruent,"(-0.4, 0)",X,5,16,0,0,0,0,0,61,61,47,,,,,,,,,,,256.2510685999878,257.24894219986163,257.24894219986163,257.45183609984815,257.45183609984815,257.45183609984815,4,0,0.31245880015194416,257.7711787999142,258.12491159979254,,,,,,,,,,999,,,,,,2023-02-01_13h51.33.741,Exp_1_Simon_task,2022.2.4,999,143.32417524367997,
Left_incongruent,"(0.4, 0)",T,4,4,0,0,0,0,0,62,62,21,,,,,,,,,,,258.3249746998772,259.32778779999353,259.32778779999353,259.5269279999193,259.5269279999193,259.5269279999193,4,1,0.5492823999375105,260.08324299985543,260.43604349996895,,,,,,,,,,999,,,,,,2023-02-01_13h51.33.741,Exp_1_Simon_task,2022.2.4,999,143.32417524367997,
Left_congruent,"(-0.4, 0)",T,4,2,0,0,0,0,0,63,63,24,,,,,,,,,,,260.6399191999808,261.6462772998493,261.6462772998493,261.832048199838,261.832048199838,261.832048199838,4,1,0.4111413999926299,262.2501261997968,262.60434649977833,,,,,,,,,,999,,,,,,2023-02-01_13h51.33.741,Exp_1_Simon_task,2022.2.4,999,143.32417524367997,
Right_congruent,"(0.4, 0)",X,5,8,0,0,0,0,0,64,64,22,,,,,,,,,,,262.805661899969,,263.79529089992866,263.9966168999672,263.9966168999672,263.9966168999672,5,1,0.32915799994952977,264.33165649999864,264.68643799982965,263.9966168999672,,,,,,,,,999,,,,,,2023-02-01_13h51.33.741,Exp_1_Simon_task,2022.2.4,999,143.32417524367997,
Left_incongruent,"(0.4, 0)",T,4,4,0,0,0,0,0,65,65,29,,,,,,,,,,,264.8846560998354,265.88744119997136,265.88744119997136,266.08267119992524,266.08267119992524,266.08267119992524,4,1,0.4242571000941098,266.51363319996744,266.86751069989987,,,,,,,,,,999,,,,,,2023-02-01_13h51.33.741,Exp_1_Simon_task,2022.2.4,999,143.32417524367997,
Right_incongruent,"(-0.4, 0)",X,5,16,0,0,0,0,0,66,66,79,,,,,,,,,,,267.06918139988557,,268.06249879999086,268.2649874999188,268.2649874999188,268.2649874999188,4,0,0.3944345999043435,268.6750760998111,269.0203518997878,268.2649874999188,,,,,,,,,999,,,,,,2023-02-01_13h51.33.741,Exp_1_Simon_task,2022.2.4,999,143.32417524367997,
Right_congruent,"(0.4, 0)",X,5,8,0,0,0,0,0,67,67,2,,,,,,,,,,,269.2216623998247,,270.21109169977717,270.4160359997768,270.4160359997768,270.4160359997768,4,0,0.47994650015607476,270.90343749988824,271.25580689986236,270.4160359997768,,,,,,,,,999,,,,,,2023-02-01_13h51.33.741,Exp_1_Simon_task,2022.2.4,999,143.32417524367997,
Left_congruent,"(-0.4, 0)",T,4,2,0,0,0,0,0,68,68,16,,,,,,,,,,,271.45440109982155,,272.44662049994804,272.653467600001,272.653467600001,272.653467600001,5,0,0.4510973999276757,273.1131163998507,273.4637862998061,272.653467600001,,,,,,,,,999,,,,,,2023-02-01_13h51.33.741,Exp_1_Simon_task,2022.2.4,999,143.32417524367997,
Left_congruent,"(-0.4, 0)",T,4,2,0,0,0,0,0,69,69,72,,,,,,,,,,,273.66556469979696,,274.6589339999482,274.8596273998264,274.8596273998264,274.8596273998264,5,0,0.5560175999999046,275.422680699965,275.77731769997627,274.8596273998264,,,,,,,,,999,,,,,,2023-02-01_13h51.33.741,Exp_1_Simon_task,2022.2.4,999,143.32417524367997,
Right_incongruent,"(-0.4, 0)",X,5,16,0,0,0,0,0,70,70,39,,,,,,,,,,,275.9775651998352,,276.9719206998125,277.1738367998041,277.1738367998041,277.1738367998041,4,0,0.49256100016646087,277.67286079982296,278.0274469999131,,,,,,,,,,999,,,,,,2023-02-01_13h51.33.741,Exp_1_Simon_task,2022.2.4,999,143.32417524367997,
Right_congruent,"(0.4, 0)",X,5,8,0,0,0,0,0,71,71,10,,,,,,,,,,,278.2288800999522,279.22804359998554,279.22804359998554,279.4239463999402,279.4239463999402,279.4239463999402,5,1,0.3737122998572886,279.8114412999712,280.1606446998194,,,,,,,,,,999,,,,,,2023-02-01_13h51.33.741,Exp_1_Simon_task,2022.2.4,999,143.32417524367997,
Left_congruent,"(-0.4, 0)",T,4,2,0,0,0,0,0,72,72,12,,,,,,,,,,,280.35718729998916,281.3608320998028,281.3608320998028,281.55411999998614,281.55411999998614,281.55411999998614,4,1,0.3901249000336975,281.9498693998903,282.3037432997953,,,,,,,,,,999,,,,,,2023-02-01_13h51.33.741,Exp_1_Simon_task,2022.2.4,999,143.32417524367997,
Left_incongruent,"(0.4, 0)",T,4,4,0,0,0,0,0,73,73,9,,,,,,,,,,,282.50806819996797,283.5138630999718,283.5138630999718,283.708324899897,283.708324899897,283.708324899897,4,1,0.41977749997749925,284.13502629986033,284.48874739999883,,,,,,,,,,999,,,,,,2023-02-01_13h51.33.741,Exp_1_Simon_task,2022.2.4,999,143.32417524367997,
Right_congruent,"(0.4, 0)",X,5,8,0,0,0,0,0,74,74,54,,,,,,,,,,,284.6899099999573,,285.67980709997937,285.887285299832,285.887285299832,285.887285299832,5,1,0.8481538998894393,286.74190349993296,287.09636169997975,285.887285299832,,,,,,,,,999,,,,,,2023-02-01_13h51.33.741,Exp_1_Simon_task,2022.2.4,999,143.32417524367997,
Right_incongruent,"(-0.4, 0)",X,5,16,0,0,0,0,0,75,75,51,,,,,,,,,,,287.2969165998511,288.2974713000003,288.2974713000003,288.50083319982514,288.50083319982514,288.50083319982514,5,1,0.3528679001610726,288.8601158999372,289.2163691997994,,,,,,,,,,999,,,,,,2023-02-01_13h51.33.741,Exp_1_Simon_task,2022.2.4,999,143.32417524367997,
Right_congruent,"(0.4, 0)",X,5,8,0,0,0,0,0,76,76,14,,,,,,,,,,,289.41469000000507,290.4163394998759,290.4163394998759,290.6167521998286,290.6167521998286,290.6167521998286,5,1,0.30621870001778007,290.92849619989283,291.2830659998581,,,,,,,,,,999,,,,,,2023-02-01_13h51.33.741,Exp_1_Simon_task,2022.2.4,999,143.32417524367997,
Left_incongruent,"(0.4, 0)",T,4,4,0,0,0,0,0,77,77,49,,,,,,,,,,,291.485390199814,292.4839971999172,292.4839971999172,292.6851821998134,292.6851821998134,292.6851821998134,4,1,0.4044469001237303,293.09629099979065,293.45190459978767,,293.44526549987495,,,,,,,,999,,,,,,2023-02-01_13h51.33.741,Exp_1_Simon_task,2022.2.4,999,143.32417524367997,
Right_incongruent,"(-0.4, 0)",X,5,16,0,0,0,0,0,78,78,67,,,,,,,,,,,293.65191849996336,294.65156539995223,294.65156539995223,294.8520431998186,294.8520431998186,294.8520431998186,4,0,0.3399410001002252,295.1998929998372,295.55375069985166,,,,,,,,,,999,,,,,,2023-02-01_13h51.33.741,Exp_1_Simon_task,2022.2.4,999,143.32417524367997,
Left_congruent,"(-0.4, 0)",T,4,2,0,0,0,0,0,79,79,4,,,,,,,,,,,295.7556735998951,,296.74214899982326,296.9427934999112,296.9427934999112,296.9427934999112,5,0,0.632303399965167,297.58210559980944,297.93633809988387,296.9427934999112,,,,,,,,,999,,,,,,2023-02-01_13h51.33.741,Exp_1_Simon_task,2022.2.4,999,143.32417524367997,
Right_congruent,"(0.4, 0)",X,5,8,1,0,1,0,0,0,0,46,,,,,,,298.1558498998638,298.1558498998638,space,22.451118000084534,320.626820899779,321.6298396999482,321.6298396999482,321.82274489989504,321.82274489989504,321.82274489989504,5,1,0.3618813999928534,322.2004021999892,322.5465714999009,,,,,,,,,,999,,,,,,2023-02-01_13h51.33.741,Exp_1_Simon_task,2022.2.4,999,143.32417524367997,
Right_incongruent,"(-0.4, 0)",X,5,16,1,0,1,0,0,1,1,7,,,,,,,,,,,322.75557379983366,323.75550269987434,323.75550269987434,323.94819429982454,323.94819429982454,323.94819429982454,4,0,0.30046239984221756,324.2562727998011,324.61253449996,,324.6056097999681,,,,,,,,999,,,,,,2023-02-01_13h51.33.741,Exp_1_Simon_task,2022.2.4,999,143.32417524367997,
Left_incongruent,"(0.4, 0)",T,4,4,1,0,1,0,0,2,2,33,,,,,,,,,,,324.8077646999154,325.8089416997973,325.8089416997973,326.01121039991267,326.01121039991267,326.01121039991267,5,0,0.29941119998693466,326.3171116998419,326.6704341999721,,,,,,,,,,999,,,,,,2023-02-01_13h51.33.741,Exp_1_Simon_task,2022.2.4,999,143.32417524367997,
Right_congruent,"(0.4, 0)",X,5,8,1,0,1,0,0,3,3,50,,,,,,,,,,,326.87309509981424,327.8732111998834,327.8732111998834,328.07313139992766,328.07313139992766,328.07313139992766,4,0,0.4123529999051243,328.49723659991287,328.84536369983107,,,,,,,,,,999,,,,,,2023-02-01_13h51.33.741,Exp_1_Simon_task,2022.2.4,999,143.32417524367997,
Right_congruent,"(0.4, 0)",X,5,8,1,0,1,0,0,4,4,66,,,,,,,,,,,329.04557610000484,,330.03993189986795,330.2408167999238,330.2408167999238,330.2408167999238,5,1,0.29109110007993877,330.5433394999709,330.89280309993774,330.2408167999238,,,,,,,,,999,,,,,,2023-02-01_13h51.33.741,Exp_1_Simon_task,2022.2.4,999,143.32417524367997,
Right_congruent,"(0.4, 0)",X,5,8,1,0,1,0,0,5,5,38,,,,,,,,,,,331.0952352997847,332.10312059987336,332.10312059987336,332.2950976998545,332.2950976998545,332.2950976998545,5,1,0.3139462999533862,332.6150063998066,332.9691977999173,,,,,,,,,,999,,,,,,2023-02-01_13h51.33.741,Exp_1_Simon_task,2022.2.4,999,143.32417524367997,
Right_incongruent,"(-0.4, 0)",X,5,16,1,0,1,0,0,6,6,19,,,,,,,,,,,333.1716808998026,334.17278269981034,334.17278269981034,334.3667411999777,334.3667411999777,334.3667411999777,4,0,0.33983499999158084,334.7150592999533,335.06784639996476,,,,,,,,,,999,,,,,,2023-02-01_13h51.33.741,Exp_1_Simon_task,2022.2.4,999,143.32417524367997,
Right_congruent,"(0.4, 0)",X,5,8,1,0,1,0,0,7,7,26,,,,,,,,,,,335.2684726999141,,336.26053849980235,336.4599260999821,336.4599260999821,336.4599260999821,5,1,0.26316620013676584,336.73030099994503,337.08799989987165,336.4599260999821,337.0800912999548,,,,,,,,999,,,,,,2023-02-01_13h51.33.741,Exp_1_Simon_task,2022.2.4,999,143.32417524367997,
Right_congruent,"(0.4, 0)",X,5,8,1,0,1,0,0,8,8,62,,,,,,,,,,,337.2815723998938,338.28181799990125,338.28181799990125,338.48428859980777,338.48428859980777,338.48428859980777,5,1,0.26943570002913475,338.76252289977856,339.1158433998935,,,,,,,,,,999,,,,,,2023-02-01_13h51.33.741,Exp_1_Simon_task,2022.2.4,999,143.32417524367997,
Right_incongruent,"(-0.4, 0)",X,5,16,1,0,1,0,0,9,9,51,,,,,,,,,,,339.31712089991197,340.3172739997972,340.3172739997972,340.5116121999454,340.5116121999454,340.5116121999454,4,0,0.3404473999980837,340.8588377998676,341.2131295998115,,,,,,,,,,999,,,,,,2023-02-01_13h51.33.741,Exp_1_Simon_task,2022.2.4,999,143.32417524367997,
Left_congruent,"(-0.4, 0)",T,4,2,1,0,1,0,0,10,10,8,,,,,,,,,,,341.4157039998099,342.4215286998078,342.4215286998078,342.6158545999788,342.6158545999788,342.6158545999788,5,0,0.5489181999582797,343.17233019997366,343.52575869997963,,,,,,,,,,999,,,,,,2023-02-01_13h51.33.741,Exp_1_Simon_task,2022.2.4,999,143.32417524367997,
Left_congruent,"(-0.4, 0)",T,4,2,1,0,1,0,0,11,11,24,,,,,,,,,,,343.7271016999148,,344.7189499998931,344.9216818998102,344.9216818998102,344.9216818998102,4,1,0.5263278998900205,345.455638299929,345.8090986998286,344.9216818998102,,,,,,,,,999,,,,,,2023-02-01_13h51.33.741,Exp_1_Simon_task,2022.2.4,999,143.32417524367997,
Right_incongruent,"(-0.4, 0)",X,5,16,1,0,1,0,0,12,12,27,,,,,,,,,,,346.0098204999231,347.0112175999675,347.0112175999675,347.20494159986265,347.20494159986265,347.20494159986265,5,1,0.6294456999748945,347.84128109994344,348.19483189983293,,,,,,,,,,999,,,,,,2023-02-01_13h51.33.741,Exp_1_Simon_task,2022.2.4,999,143.32417524367997,
Left_incongruent,"(0.4, 0)",T,4,4,1,0,1,0,0,13,13,73,,,,,,,,,,,348.3922422998585,349.39177589979954,349.39177589979954,349.5932922998909,349.5932922998909,349.5932922998909,4,1,0.521459799958393,350.12393439980224,350.4752980999183,,,,,,,,,,999,,,,,,2023-02-01_13h51.33.741,Exp_1_Simon_task,2022.2.4,999,143.32417524367997,
Right_congruent,"(0.4, 0)",X,5,8,1,0,1,0,0,14,14,74,,,,,,,,,,,350.67847929988056,351.6798980999738,351.6798980999738,351.8785716998391,351.8785716998391,351.8785716998391,5,1,0.5488793000113219,352.4350212998688,352.7877206997946,,,,,,,,,,999,,,,,,2023-02-01_13h51.33.741,Exp_1_Simon_task,2022.2.4,999,143.32417524367997,
Left_congruent,"(-0.4, 0)",T,4,2,1,0,1,0,0,15,15,40,,,,,,,,,,,352.9891262999736,,353.9824660997838,354.18403819995,354.18403819995,354.18403819995,4,1,0.5317236001137644,354.7224041998852,355.0795942998957,,355.0725525999442,,,,,,,,999,,,,,,2023-02-01_13h51.33.741,Exp_1_Simon_task,2022.2.4,999,143.32417524367997,
Left_congruent,"(-0.4, 0)",T,4,2,1,0,1,0,0,16,16,0,,,,,,,,,,,355.27438919991255,,356.267802399816,356.46771569992416,356.46771569992416,356.46771569992416,4,1,0.3543008000124246,356.8290084998589,357.1833390998654,356.46771569992416,,,,,,,,,999,,,,,,2023-02-01_13h51.33.741,Exp_1_Simon_task,2022.2.4,999,143.32417524367997,
Right_congruent,"(0.4, 0)",X,5,8,1,0,1,0,0,17,17,30,,,,,,,,,,,357.38553209998645,358.38614959991537,358.38614959991537,358.5869435998611,358.5869435998611,358.5869435998611,5,1,0.3965604000259191,358.9898304999806,359.34447969985195,,,,,,,,,,999,,,,,,2023-02-01_13h51.33.741,Exp_1_Simon_task,2022.2.4,999,143.32417524367997,
Left_incongruent,"(0.4, 0)",T,4,4,1,0,1,0,0,18,18,25,,,,,,,,,,,359.5457460999023,360.5525320000015,360.5525320000015,360.746954199858,360.746954199858,360.746954199858,4,1,0.4576993000227958,361.2124406998046,361.5668591998983,,,,,,,,,,999,,,,,,2023-02-01_13h51.33.741,Exp_1_Simon_task,2022.2.4,999,143.32417524367997,
Right_incongruent,"(-0.4, 0)",X,5,16,1,0,1,0,0,19,19,3,,,,,,,,,,,361.7668065999169,362.76919809984975,362.76919809984975,362.96951899980195,362.96951899980195,362.96951899980195,5,1,0.6700937000568956,363.6483727998566,364.00358969997615,,,,,,,,,,999,,,,,,2023-02-01_13h51.33.741,Exp_1_Simon_task,2022.2.4,999,143.32417524367997,
Right_congruent,"(0.4, 0)",X,5,8,1,0,1,0,0,20,20,22,,,,,,,,,,,364.1959039999638,,365.1913486998528,365.39215699979104,365.39215699979104,365.39215699979104,4,0,0.3816198999993503,365.79013859992847,366.1348258999642,365.39215699979104,,,,,,,,,999,,,,,,2023-02-01_13h51.33.741,Exp_1_Simon_task,2022.2.4,999,143.32417524367997,
Right_incongruent,"(-0.4, 0)",X,5,16,1,0,1,0,0,21,21,67,,,,,,,,,,,366.33721469994634,367.3432445998769,367.3432445998769,367.53313959995285,367.53313959995285,367.53313959995285,5,1,0.3595457000192255,367.8994229999371,368.2528705999721,,,,,,,,,,999,,,,,,2023-02-01_13h51.33.741,Exp_1_Simon_task,2022.2.4,999,143.32417524367997,
Right_incongruent,"(-0.4, 0)",X,5,16,1,0,1,0,0,22,22,59,,,,,,,,,,,368.4555189998355,,369.4472597998101,369.6481338997837,369.6481338997837,369.6481338997837,5,1,0.42531699989922345,370.0790071999654,370.43644829979166,369.6481338997837,370.42898749979213,,,,,,,,999,,,,,,2023-02-01_13h51.33.741,Exp_1_Simon_task,2022.2.4,999,143.32417524367997,
Left_congruent,"(-0.4, 0)",T,4,2,1,0,1,0,0,23,23,72,,,,,,,,,,,370.63834389997646,371.6418893998489,371.6418893998489,371.83744159992784,371.83744159992784,371.83744159992784,4,1,0.49445859994739294,372.33987099980004,372.69045069999993,,,,,,,,,,999,,,,,,2023-02-01_13h51.33.741,Exp_1_Simon_task,2022.2.4,999,143.32417524367997,
Right_congruent,"(0.4, 0)",X,5,8,1,0,1,0,0,24,24,42,,,,,,,,,,,372.8958387998864,373.89901329996064,373.89901329996064,374.092276699841,374.092276699841,374.092276699841,5,1,0.3280444999691099,374.42712619993836,374.7803162999917,,374.77536559989676,,,,,,,,999,,,,,,2023-02-01_13h51.33.741,Exp_1_Simon_task,2022.2.4,999,143.32417524367997,
Left_incongruent,"(0.4, 0)",T,4,4,1,0,1,0,0,25,25,37,,,,,,,,,,,374.9830429998692,375.98267159983516,375.98267159983516,376.18135789991356,376.18135789991356,376.18135789991356,4,1,0.4354934999719262,376.6268507000059,376.97934879991226,,,,,,,,,,999,,,,,,2023-02-01_13h51.33.741,Exp_1_Simon_task,2022.2.4,999,143.32417524367997,
Left_incongruent,"(0.4, 0)",T,4,4,1,0,1,0,0,26,26,21,,,,,,,,,,,377.1767464999575,,378.1689469998237,378.3710413000081,378.3710413000081,378.3710413000081,4,1,0.41056019999086857,378.78819089988247,379.14190789987333,378.3710413000081,,,,,,,,,999,,,,,,2023-02-01_13h51.33.741,Exp_1_Simon_task,2022.2.4,999,143.32417524367997,
Right_incongruent,"(-0.4, 0)",X,5,16,1,0,1,0,0,27,27,55,,,,,,,,,,,379.3433346999809,380.3437245998066,380.3437245998066,380.5450449998025,380.5450449998025,380.5450449998025,5,1,0.38246320001780987,380.9340533998329,381.28772339993156,,,,,,,,,,999,,,,,,2023-02-01_13h51.33.741,Exp_1_Simon_task,2022.2.4,999,143.32417524367997,
Left_incongruent,"(0.4, 0)",T,4,4,1,0,1,0,0,28,28,77,,,,,,,,,,,381.49156759982,382.4933449998498,382.4933449998498,382.6871069998015,382.6871069998015,382.6871069998015,4,1,0.3406863999553025,383.0377551999409,383.39049829985015,,,,,,,,,,999,,,,,,2023-02-01_13h51.33.741,Exp_1_Simon_task,2022.2.4,999,143.32417524367997,
Left_incongruent,"(0.4, 0)",T,4,4,1,0,1,0,0,29,29,13,,,,,,,,,,,383.5918845999986,384.5918495999649,384.5918495999649,384.78678289987147,384.78678289987147,384.78678289987147,5,0,0.4580351000186056,385.25181759987026,385.60579249984585,,,,,,,,,,999,,,,,,2023-02-01_13h51.33.741,Exp_1_Simon_task,2022.2.4,999,143.32417524367997,
Right_congruent,"(0.4, 0)",X,5,8,1,0,1,0,0,30,30,6,,,,,,,,,,,385.8071316999849,,386.8010168999899,387.0044533999171,387.0044533999171,387.0044533999171,5,1,0.28316639992408454,387.2932056998834,387.6492713999469,387.0044533999171,387.6423196999822,,,,,,,,999,,,,,,2023-02-01_13h51.33.741,Exp_1_Simon_task,2022.2.4,999,143.32417524367997,
Left_incongruent,"(0.4, 0)",T,4,4,1,0,1,0,0,31,31,17,,,,,,,,,,,387.85079189995304,388.8574605998583,388.8574605998583,389.05066849989817,389.05066849989817,389.05066849989817,4,1,0.3821839999873191,389.44212349993177,389.796626499854,,,,,,,,,,999,,,,,,2023-02-01_13h51.33.741,Exp_1_Simon_task,2022.2.4,999,143.32417524367997,
Left_congruent,"(-0.4, 0)",T,4,2,1,0,1,0,0,32,32,12,,,,,,,,,,,389.99301569978707,390.99657249986194,390.99657249986194,391.19804869988,391.19804869988,391.19804869988,5,0,0.6111452002078295,391.8173262998462,392.1687906999141,,,,,,,,,,999,,,,,,2023-02-01_13h51.33.741,Exp_1_Simon_task,2022.2.4,999,143.32417524367997,
Left_incongruent,"(0.4, 0)",T,4,4,1,0,1,0,0,33,33,61,,,,,,,,,,,392.3713220998179,393.37531909998506,393.37531909998506,393.5699468997773,393.5699468997773,393.5699468997773,4,1,0.5790172000415623,394.1547490998637,394.510411700001,,,,,,,,,,999,,,,,,2023-02-01_13h51.33.741,Exp_1_Simon_task,2022.2.4,999,143.32417524367997,
Right_incongruent,"(-0.4, 0)",X,5,16,1,0,1,0,0,34,34,31,,,,,,,,,,,394.7158100998495,395.7178394999355,395.7178394999355,395.91186229977757,395.91186229977757,395.91186229977757,5,1,0.5013417999725789,396.41856909985654,396.7732669999823,,,,,,,,,,999,,,,,,2023-02-01_13h51.33.741,Exp_1_Simon_task,2022.2.4,999,143.32417524367997,
Right_congruent,"(0.4, 0)",X,5,8,1,0,1,0,0,35,35,70,,,,,,,,,,,396.97394559998065,,397.9641784999985,398.16538879997097,398.16538879997097,398.16538879997097,5,1,0.6068003999534994,398.7789169999305,399.1331308998633,398.16538879997097,,,,,,,,,999,,,,,,2023-02-01_13h51.33.741,Exp_1_Simon_task,2022.2.4,999,143.32417524367997,
Left_incongruent,"(0.4, 0)",T,4,4,1,0,1,0,0,36,36,57,,,,,,,,,,,399.3344541999977,400.339947699802,400.339947699802,400.5358471998479,400.5358471998479,400.5358471998479,4,1,0.64727389998734,401.1886532998178,401.5446141997818,,401.5375941998791,,,,,,,,999,,,,,,2023-02-01_13h51.33.741,Exp_1_Simon_task,2022.2.4,999,143.32417524367997,
Left_incongruent,"(0.4, 0)",T,4,4,1,0,1,0,0,37,37,9,,,,,,,,,,,401.7445128997788,402.7533933999948,402.7533933999948,402.94051069999114,402.94051069999114,402.94051069999114,5,0,0.45013449992984533,403.39931569993496,403.752880099928,,,,,,,,,,999,,,,,,2023-02-01_13h51.33.741,Exp_1_Simon_task,2022.2.4,999,143.32417524367997,
Left_incongruent,"(0.4, 0)",T,4,4,1,0,1,0,0,38,38,53,,,,,,,,,,,403.9544185998384,404.9544130999129,404.9544130999129,405.14683859981596,405.14683859981596,405.14683859981596,5,0,0.3354619999881834,405.4879673998803,405.8431333999615,,,,,,,,,,999,,,,,,2023-02-01_13h51.33.741,Exp_1_Simon_task,2022.2.4,999,143.32417524367997,
Right_incongruent,"(-0.4, 0)",X,5,16,1,0,1,0,0,39,39,23,,,,,,,,,,,406.04404489998706,407.0432068000082,407.0432068000082,407.24743849993683,407.24743849993683,407.24743849993683,4,0,0.21409939997829497,407.4700032998808,407.8221651997883,,,,,,,,,,999,,,,,,2023-02-01_13h51.33.741,Exp_1_Simon_task,2022.2.4,999,143.32417524367997,
Left_incongruent,"(0.4, 0)",T,4,4,1,0,1,0,0,40,40,65,,,,,,,,,,,408.02316619991325,,409.0131667999085,409.21418609982356,409.21418609982356,409.21418609982356,5,0,0.40199830010533333,409.6235795998946,409.9800718999468,409.21418609982356,409.97316839988343,,,,,,,,999,,,,,,2023-02-01_13h51.33.741,Exp_1_Simon_task,2022.2.4,999,143.32417524367997,
Right_congruent,"(0.4, 0)",X,5,8,1,0,1,0,0,41,41,34,,,,,,,,,,,410.1743793999776,,411.1675239999313,411.3689058998134,411.3689058998134,411.3689058998134,4,0,0.3673560000024736,411.74641079991125,412.09807259985246,411.3689058998134,,,,,,,,,999,,,,,,2023-02-01_13h51.33.741,Exp_1_Simon_task,2022.2.4,999,143.32417524367997,
Right_congruent,"(0.4, 0)",X,5,8,1,0,1,0,0,42,42,78,,,,,,,,,,,412.29737829999067,,413.2858846997842,413.48848939989693,413.48848939989693,413.48848939989693,5,1,0.4792940001934767,413.9742403998971,414.3288801999297,413.48848939989693,,,,,,,,,999,,,,,,2023-02-01_13h51.33.741,Exp_1_Simon_task,2022.2.4,999,143.32417524367997,
Left_congruent,"(-0.4, 0)",T,4,2,1,0,1,0,0,43,43,16,,,,,,,,,,,414.5298191998154,415.5305269998498,415.5305269998498,415.7318694998976,415.7318694998976,415.7318694998976,4,1,0.48476210003718734,416.2249541999772,416.578289499972,,,,,,,,,,999,,,,,,2023-02-01_13h51.33.741,Exp_1_Simon_task,2022.2.4,999,143.32417524367997,
Right_congruent,"(0.4, 0)",X,5,8,1,0,1,0,0,44,44,14,,,,,,,,,,,416.7786444998346,,417.7670724999625,417.9678281999659,417.9678281999659,417.9678281999659,5,1,0.5928015999961644,418.5703990999609,418.9263898998033,417.9678281999659,,,,,,,,,999,,,,,,2023-02-01_13h51.33.741,Exp_1_Simon_task,2022.2.4,999,143.32417524367997,
Left_incongruent,"(0.4, 0)",T,4,4,1,0,1,0,0,45,45,29,,,,,,,,,,,419.12003249977715,420.1205368998926,420.1205368998926,420.32567809987813,420.32567809987813,420.32567809987813,4,1,0.6330721001140773,420.96984399994835,421.3208539998159,,,,,,,,,,999,,,,,,2023-02-01_13h51.33.741,Exp_1_Simon_task,2022.2.4,999,143.32417524367997,
Right_incongruent,"(-0.4, 0)",X,5,16,1,0,1,0,0,46,46,71,,,,,,,,,,,421.52213649987243,,422.51022549998015,422.7097276998684,422.7097276998684,422.7097276998684,5,1,0.5146101000718772,423.2308059998322,423.58547869999893,422.7097276998684,,,,,,,,,999,,,,,,2023-02-01_13h51.33.741,Exp_1_Simon_task,2022.2.4,999,143.32417524367997,
Right_incongruent,"(-0.4, 0)",X,5,16,1,0,1,0,0,47,47,15,,,,,,,,,,,423.7868550999556,424.78710039984435,424.78710039984435,424.98766899993643,424.98766899993643,424.98766899993643,5,1,0.5349803999997675,425.5294772000052,425.8834292998072,,,,,,,,,,999,,,,,,2023-02-01_13h51.33.741,Exp_1_Simon_task,2022.2.4,999,143.32417524367997,
Left_incongruent,"(0.4, 0)",T,4,4,1,0,1,0,0,48,48,69,,,,,,,,,,,426.0845537998248,,427.0786795997992,427.27860099985264,427.27860099985264,427.27860099985264,4,1,0.48025209992192686,427.7729224998038,428.119677899871,427.27860099985264,,,,,,,,,999,,,,,,2023-02-01_13h51.33.741,Exp_1_Simon_task,2022.2.4,999,143.32417524367997,
Left_incongruent,"(0.4, 0)",T,4,4,1,0,1,0,0,49,49,45,,,,,,,,,,,428.31998449983075,429.32137909997255,429.32137909997255,429.5228095999919,429.5228095999919,429.5228095999919,5,0,1.0491150000598282,430.5777477999218,430.9314642997924,,430.9263617999386,,,,,,,,999,,,,,,2023-02-01_13h51.33.741,Exp_1_Simon_task,2022.2.4,999,143.32417524367997,
Left_congruent,"(-0.4, 0)",T,4,2,1,0,1,0,0,50,50,76,,,,,,,,,,,431.13356799981557,432.13678459986113,432.13678459986113,432.334599299822,432.334599299822,432.334599299822,5,0,0.8061117997858673,433.1484550999012,433.5013039999176,,,,,,,,,,999,,,,,,2023-02-01_13h51.33.741,Exp_1_Simon_task,2022.2.4,999,143.32417524367997,
Left_congruent,"(-0.4, 0)",T,4,2,1,0,1,0,0,51,51,68,,,,,,,,,,,433.70262319990434,434.7028949998785,434.7028949998785,434.90366879990324,434.90366879990324,434.90366879990324,4,1,0.4041456999257207,435.3138331999071,435.6667198999785,,,,,,,,,,999,,,,,,2023-02-01_13h51.33.741,Exp_1_Simon_task,2022.2.4,999,143.32417524367997,
Right_incongruent,"(-0.4, 0)",X,5,16,1,0,1,0,0,52,52,75,,,,,,,,,,,435.86966029996984,436.8689105999656,436.8689105999656,437.07139019994065,437.07139019994065,437.07139019994065,4,0,0.3612465998157859,437.44011069997214,437.7937151999213,,,,,,,,,,999,,,,,,2023-02-01_13h51.33.741,Exp_1_Simon_task,2022.2.4,999,143.32417524367997,
Right_congruent,"(0.4, 0)",X,5,8,1,0,1,0,0,53,53,58,,,,,,,,,,,437.9947590997908,438.9963987998199,438.9963987998199,439.2037208999973,439.2037208999973,439.2037208999973,4,0,0.6795383000280708,439.88955779979005,440.24223519978113,,,,,,,,,,999,,,,,,2023-02-01_13h51.33.741,Exp_1_Simon_task,2022.2.4,999,143.32417524367997,
Right_incongruent,"(-0.4, 0)",X,5,16,1,0,1,0,0,54,54,47,,,,,,,,,,,440.4465842999052,441.4529487998225,441.4529487998225,441.64067239989527,441.64067239989527,441.64067239989527,5,1,0.4462701000738889,442.0951144997962,442.44913649978116,,,,,,,,,,999,,,,,,2023-02-01_13h51.33.741,Exp_1_Simon_task,2022.2.4,999,143.32417524367997,
Left_incongruent,"(0.4, 0)",T,4,4,1,0,1,0,0,55,55,41,,,,,,,,,,,442.64642729982734,443.6475654998794,443.6475654998794,443.84760929993354,443.84760929993354,443.84760929993354,4,1,0.34068570006638765,444.19425619998947,444.54873639997095,,444.5422427000012,,,,,,,,999,,,,,,2023-02-01_13h51.33.741,Exp_1_Simon_task,2022.2.4,999,143.32417524367997,
Left_congruent,"(-0.4, 0)",T,4,2,1,0,1,0,0,56,56,36,,,,,,,,,,,444.7510260997806,445.7517065999564,445.7517065999564,445.9449054999277,445.9449054999277,445.9449054999277,4,1,0.4104576001409441,446.36208659992553,446.7151181998197,,,,,,,,,,999,,,,,,2023-02-01_13h51.33.741,Exp_1_Simon_task,2022.2.4,999,143.32417524367997,
Right_incongruent,"(-0.4, 0)",X,5,16,1,0,1,0,0,57,57,11,,,,,,,,,,,446.91826609987766,447.91688479995355,447.91688479995355,448.118996999925,448.118996999925,448.118996999925,4,0,0.4659407997969538,448.59312249999493,448.94603259977885,,,,,,,,,,999,,,,,,2023-02-01_13h51.33.741,Exp_1_Simon_task,2022.2.4,999,143.32417524367997,
Right_incongruent,"(-0.4, 0)",X,5,16,1,0,1,0,0,58,58,43,,,,,,,,,,,449.1437043999322,,450.140085299965,450.3412113999948,450.3412113999948,450.3412113999948,4,0,0.40951870009303093,450.7573259999044,451.111321099801,450.3412113999948,,,,,,,,,999,,,,,,2023-02-01_13h51.33.741,Exp_1_Simon_task,2022.2.4,999,143.32417524367997,
Left_congruent,"(-0.4, 0)",T,4,2,1,0,1,0,0,59,59,32,,,,,,,,,,,451.31322199990973,,452.30686559993774,452.50709049985744,452.50709049985744,452.50709049985744,5,0,0.6049009000416845,453.1177456998266,453.4730742999818,452.50709049985744,,,,,,,,,999,,,,,,2023-02-01_13h51.33.741,Exp_1_Simon_task,2022.2.4,999,143.32417524367997,
Left_congruent,"(-0.4, 0)",T,4,2,1,0,1,0,0,60,60,56,,,,,,,,,,,453.67372829979286,454.6734772999771,454.6734772999771,454.86860980000347,454.86860980000347,454.86860980000347,5,0,0.43302090000361204,455.32012950000353,455.6611483998131,,,,,,,,,,999,,,,,,2023-02-01_13h51.33.741,Exp_1_Simon_task,2022.2.4,999,143.32417524367997,
Left_congruent,"(-0.4, 0)",T,4,2,1,0,1,0,0,61,61,60,,,,,,,,,,,455.8626369999256,456.86211389978416,456.86211389978416,457.0620877998881,457.0620877998881,457.0620877998881,4,1,0.36945399991236627,457.4371128999628,457.7921324998606,,,,,,,,,,999,,,,,,2023-02-01_13h51.33.741,Exp_1_Simon_task,2022.2.4,999,143.32417524367997,
Left_congruent,"(-0.4, 0)",T,4,2,1,0,1,0,0,62,62,64,,,,,,,,,,,457.9927882999182,458.9925284998026,458.9925284998026,459.1942374999635,459.1942374999635,459.1942374999635,4,1,0.2922840998508036,459.49815639993176,459.8477553999983,,,,,,,,,,999,,,,,,2023-02-01_13h51.33.741,Exp_1_Simon_task,2022.2.4,999,143.32417524367997,
Right_incongruent,"(-0.4, 0)",X,5,16,1,0,1,0,0,63,63,35,,,,,,,,,,,460.04794149985537,461.04974749987014,461.04974749987014,461.2511416999623,461.2511416999623,461.2511416999623,4,0,0.33267950010485947,461.59163649985567,461.9453219999559,,,,,,,,,,999,,,,,,2023-02-01_13h51.33.741,Exp_1_Simon_task,2022.2.4,999,143.32417524367997,
Left_incongruent,"(0.4, 0)",T,4,4,1,0,1,0,0,64,64,49,,,,,,,,,,,462.14660009997897,463.1477734998334,463.1477734998334,463.3472817998845,463.3472817998845,463.3472817998845,4,1,0.5218988999258727,463.8758389998693,464.2286568998825,,,,,,,,,,999,,,,,,2023-02-01_13h51.33.741,Exp_1_Simon_task,2022.2.4,999,143.32417524367997,
Left_congruent,"(-0.4, 0)",T,4,2,1,0,1,0,0,65,65,44,,,,,,,,,,,464.4299122998491,465.4354860999156,465.4354860999156,465.62910889997147,465.62910889997147,465.62910889997147,4,1,0.34240500000305474,465.98170629981905,466.3325072999578,,,,,,,,,,999,,,,,,2023-02-01_13h51.33.741,Exp_1_Simon_task,2022.2.4,999,143.32417524367997,
Right_incongruent,"(-0.4, 0)",X,5,16,1,0,1,0,0,66,66,79,,,,,,,,,,,466.5340858998243,467.5338936999906,467.5338936999906,467.73517319979146,467.73517319979146,467.73517319979146,5,1,0.4445081998128444,468.18657799996436,468.5408248999156,,,,,,,,,,999,,,,,,2023-02-01_13h51.33.741,Exp_1_Simon_task,2022.2.4,999,143.32417524367997,
Right_congruent,"(0.4, 0)",X,5,8,1,0,1,0,0,67,67,54,,,,,,,,,,,468.7421279998962,,469.7356780997943,469.93701529991813,469.93701529991813,469.93701529991813,5,1,0.9866269999183714,470.93479149998166,471.28448759997264,,,,,,,,,,999,,,,,,2023-02-01_13h51.33.741,Exp_1_Simon_task,2022.2.4,999,143.32417524367997,
Right_congruent,"(0.4, 0)",X,5,8,1,0,1,0,0,68,68,2,,,,,,,,,,,471.48717529978603,472.4925824999809,472.4925824999809,472.687558399979,472.687558399979,472.687558399979,4,0,0.5842655999585986,473.27952779992484,473.63306439993903,,,,,,,,,,999,,,,,,2023-02-01_13h51.33.741,Exp_1_Simon_task,2022.2.4,999,143.32417524367997,
Left_congruent,"(-0.4, 0)",T,4,2,1,0,1,0,0,69,69,4,,,,,,,,,,,473.83373069996014,474.8374486998655,474.8374486998655,475.0346938997973,475.0346938997973,475.0346938997973,4,1,0.7532215001992881,475.795443699928,476.14529069978744,,,,,,,,,,999,,,,,,2023-02-01_13h51.33.741,Exp_1_Simon_task,2022.2.4,999,143.32417524367997,
Left_incongruent,"(0.4, 0)",T,4,4,1,0,1,0,0,70,70,5,,,,,,,,,,,476.347358699888,477.3471911000088,477.3471911000088,477.54831749992445,477.54831749992445,477.54831749992445,4,1,0.4859794999938458,478.04093449981883,478.3951116998214,,,,,,,,,,999,,,,,,2023-02-01_13h51.33.741,Exp_1_Simon_task,2022.2.4,999,143.32417524367997,
Right_congruent,"(0.4, 0)",X,5,8,1,0,1,0,0,71,71,18,,,,,,,,,,,478.5978768998757,479.5978298999835,479.5978298999835,479.79750999994576,479.79750999994576,479.79750999994576,5,1,0.425357700092718,480.22953359992243,480.586011899868,,480.5788200998213,,,,,,,,999,,,,,,2023-02-01_13h51.33.741,Exp_1_Simon_task,2022.2.4,999,143.32417524367997,
Left_congruent,"(-0.4, 0)",T,4,2,1,0,1,0,0,72,72,20,,,,,,,,,,,480.78360549989156,481.7835934998002,481.7835934998002,481.9875538998749,481.9875538998749,481.9875538998749,4,1,0.5647175998892635,482.5591304998379,482.9111904997844,,,,,,,,,,999,,,,,,2023-02-01_13h51.33.741,Exp_1_Simon_task,2022.2.4,999,143.32417524367997,
Left_congruent,"(-0.4, 0)",T,4,2,1,0,1,0,0,73,73,28,,,,,,,,,,,483.11047669989057,484.11060169991106,484.11060169991106,484.31353629985824,484.31353629985824,484.31353629985824,4,1,0.371013900032267,484.6937986998819,485.0447983997874,,,,,,,,,,999,,,,,,2023-02-01_13h51.33.741,Exp_1_Simon_task,2022.2.4,999,143.32417524367997,
Right_congruent,"(0.4, 0)",X,5,8,1,0,1,0,0,74,74,10,,,,,,,,,,,485.24348869989626,486.2484846999869,486.2484846999869,486.44292149995454,486.44292149995454,486.44292149995454,5,1,0.4035620999056846,486.85361919994466,487.20693299989216,,,,,,,,,,999,,,,,,2023-02-01_13h51.33.741,Exp_1_Simon_task,2022.2.4,999,143.32417524367997,
Left_congruent,"(-0.4, 0)",T,4,2,1,0,1,0,0,75,75,52,,,,,,,,,,,487.4082584998105,488.40931959985755,488.40931959985755,488.6107981998939,488.6107981998939,488.6107981998939,4,1,0.5770794998388737,489.1942669998389,489.548927599797,,,,,,,,,,999,,,,,,2023-02-01_13h51.33.741,Exp_1_Simon_task,2022.2.4,999,143.32417524367997,
Right_incongruent,"(-0.4, 0)",X,5,16,1,0,1,0,0,76,76,39,,,,,,,,,,,489.7497724997811,490.7486825999804,490.7486825999804,490.95052569988184,490.95052569988184,490.95052569988184,5,1,0.4733496999833733,491.4309077998623,491.78162699984387,,,,,,,,,,999,,,,,,2023-02-01_13h51.33.741,Exp_1_Simon_task,2022.2.4,999,143.32417524367997,
Left_incongruent,"(0.4, 0)",T,4,4,1,0,1,0,0,77,77,1,,,,,,,,,,,491.9864670999814,492.99184419983067,492.99184419983067,493.187312199967,493.187312199967,493.187312199967,4,1,0.5840322999283671,493.7789001998026,494.13071199995466,,,,,,,,,,999,,,,,,2023-02-01_13h51.33.741,Exp_1_Simon_task,2022.2.4,999,143.32417524367997,
Right_incongruent,"(-0.4, 0)",X,5,16,1,0,1,0,0,78,78,63,,,,,,,,,,,494.33334669983014,495.33180549996905,495.33180549996905,495.53326900000684,495.53326900000684,495.53326900000684,4,0,0.3945458000525832,495.94063899992034,496.2877715998329,,,,,,,,,,999,,,,,,2023-02-01_13h51.33.741,Exp_1_Simon_task,2022.2.4,999,143.32417524367997,
Left_congruent,"(-0.4, 0)",T,4,2,1,0,1,0,0,79,79,48,,,,,,,,,,,496.49242329993285,497.4915414999705,497.4915414999705,497.68641499988735,497.68641499988735,497.68641499988735,5,0,0.4384359000250697,498.13235229998827,498.4849236998707,,,,,,,,,,999,,,,,,2023-02-01_13h51.33.741,Exp_1_Simon_task,2022.2.4,999,143.32417524367997,
Right_congruent,"(0.4, 0)",X,5,8,2,0,2,0,0,0,0,50,,,,,,,498.69888039981015,498.69888039981015,space,20.79708019993268,519.5155453998595,520.519605099922,520.519605099922,520.7065819997806,520.7065819997806,520.7065819997806,4,0,0.4336093000601977,521.1514637998771,521.4979335998651,,,,,,,,,,999,,,,,,2023-02-01_13h51.33.741,Exp_1_Simon_task,2022.2.4,999,143.32417524367997,
Left_congruent,"(-0.4, 0)",T,4,2,2,0,2,0,0,1,1,40,,,,,,,,,,,521.6989069997799,,522.6982629999984,522.8977985999081,522.8977985999081,522.8977985999081,4,1,0.6072145001962781,523.5116685999092,523.8660009999294,522.8977985999081,,,,,,,,,999,,,,,,2023-02-01_13h51.33.741,Exp_1_Simon_task,2022.2.4,999,143.32417524367997,
Right_incongruent,"(-0.4, 0)",X,5,16,2,0,2,0,0,2,2,59,,,,,,,,,,,524.0678110998124,,525.060553399846,525.2644028998911,525.2644028998911,525.2644028998911,5,1,0.713899299968034,525.9852328998968,526.3391754999757,,,,,,,,,,999,,,,,,2023-02-01_13h51.33.741,Exp_1_Simon_task,2022.2.4,999,143.32417524367997,
Left_incongruent,"(0.4, 0)",T,4,4,2,0,2,0,0,3,3,5,,,,,,,,,,,526.5394877998624,,527.5338154998608,527.7336077999789,527.7336077999789,527.7336077999789,4,1,0.3693705000914633,528.1088084999938,528.463619899936,527.7336077999789,,,,,,,,,999,,,,,,2023-02-01_13h51.33.741,Exp_1_Simon_task,2022.2.4,999,143.32417524367997,
Left_congruent,"(-0.4, 0)",T,4,2,2,0,2,0,0,4,4,48,,,,,,,,,,,528.6655195998028,529.6728417999111,529.6728417999111,529.8587391998153,529.8587391998153,529.8587391998153,4,1,0.3855699000414461,530.2546015998814,530.60506049986,,,,,,,,,,999,,,,,,2023-02-01_13h51.33.741,Exp_1_Simon_task,2022.2.4,999,143.32417524367997,
Right_congruent,"(0.4, 0)",X,5,8,2,0,2,0,0,5,5,78,,,,,,,,,,,530.804568399908,,531.7977341997903,532.0002557998523,532.0002557998523,532.0002557998523,5,1,0.5405030001420528,532.5476387999952,532.9035912998952,532.0002557998523,,,,,,,,,999,,,,,,2023-02-01_13h51.33.741,Exp_1_Simon_task,2022.2.4,999,143.32417524367997,
Right_congruent,"(0.4, 0)",X,5,8,2,0,2,0,0,6,6,26,,,,,,,,,,,533.1022385999095,534.102763999952,534.102763999952,534.3039040998556,534.3039040998556,534.3039040998556,5,1,0.5699976000469178,534.8804672998376,535.2337090999354,,,,,,,,,,999,,,,,,2023-02-01_13h51.33.741,Exp_1_Simon_task,2022.2.4,999,143.32417524367997,
Left_incongruent,"(0.4, 0)",T,4,4,2,0,2,0,0,7,7,45,,,,,,,,,,,535.4329842999578,,536.4281516999472,536.6302850998472,536.6302850998472,536.6302850998472,4,1,0.4303971999324858,537.0670645998325,537.420635699993,536.6302850998472,,,,,,,,,999,,,,,,2023-02-01_13h51.33.741,Exp_1_Simon_task,2022.2.4,999,143.32417524367997,
Left_congruent,"(-0.4, 0)",T,4,2,2,0,2,0,0,8,8,68,,,,,,,,,,,537.6230856999755,538.6223316998221,538.6223316998221,538.8236504998058,538.8236504998058,538.8236504998058,4,1,0.3480096999555826,539.1776381998789,539.5349200998899,,,,,,,,,,999,,,,,,2023-02-01_13h51.33.741,Exp_1_Simon_task,2022.2.4,999,143.32417524367997,
Right_incongruent,"(-0.4, 0)",X,5,16,2,0,2,0,0,9,9,3,,,,,,,,,,,539.7336756999139,540.7334702999797,540.7334702999797,540.9346769999247,540.9346769999247,540.9346769999247,5,1,0.39763050014153123,541.3378460998647,541.6928369000088,,,,,,,,,,999,,,,,,2023-02-01_13h51.33.741,Exp_1_Simon_task,2022.2.4,999,143.32417524367997,
Right_congruent,"(0.4, 0)",X,5,8,2,0,2,0,0,10,10,10,,,,,,,,,,,541.893834099872,,542.8860905999318,543.0883957999758,543.0883957999758,543.0883957999758,5,1,0.35477330000139773,543.4496516999789,543.8095444999635,543.0883957999758,543.8015945998486,,,,,,,,999,,,,,,2023-02-01_13h51.33.741,Exp_1_Simon_task,2022.2.4,999,143.32417524367997,
Right_incongruent,"(-0.4, 0)",X,5,16,2,0,2,0,0,11,11,19,,,,,,,,,,,544.0042271998245,545.0057998998091,545.0057998998091,545.2034629997797,545.2034629997797,545.2034629997797,5,1,0.582624200033024,545.7928769998252,546.1494463998824,,546.1426488999277,,,,,,,,999,,,,,,2023-02-01_13h51.33.741,Exp_1_Simon_task,2022.2.4,999,143.32417524367997,
Right_incongruent,"(-0.4, 0)",X,5,16,2,0,2,0,0,12,12,67,,,,,,,,,,,546.3438997999765,,547.3369803999085,547.5408852999099,547.5408852999099,547.5408852999099,5,1,0.39330850006081164,547.9411245000083,548.2952596999239,547.5408852999099,,,,,,,,,999,,,,,,2023-02-01_13h51.33.741,Exp_1_Simon_task,2022.2.4,999,143.32417524367997,
Left_congruent,"(-0.4, 0)",T,4,2,2,0,2,0,0,13,13,52,,,,,,,,,,,548.4966356998775,549.4966144999489,549.4966144999489,549.6929144999012,549.6929144999012,549.6929144999012,4,1,1.1661384999752045,550.8666656999849,551.2151179998182,,,551.4132552999072,,,,,,,999,,,,,,2023-02-01_13h51.33.741,Exp_1_Simon_task,2022.2.4,999,143.32417524367997,
Right_congruent,"(0.4, 0)",X,5,8,2,0,2,0,0,14,14,30,,,,,,,,,,,551.4132552999072,552.4136260999367,552.4136260999367,552.6154444999993,552.6154444999993,552.6154444999993,5,1,0.44019630015827715,553.0619047000073,553.4174641999416,,,,,,,,,,999,,,,,,2023-02-01_13h51.33.741,Exp_1_Simon_task,2022.2.4,999,143.32417524367997,
Left_incongruent,"(0.4, 0)",T,4,4,2,0,2,0,0,15,15,65,,,,,,,,,,,553.6175916998181,,554.609003999969,554.8160401999485,554.8160401999485,554.8160401999485,5,0,1.0346609000116587,555.8600570999552,556.2121716998518,554.8160401999485,,,,,,,,,999,,,,,,2023-02-01_13h51.33.741,Exp_1_Simon_task,2022.2.4,999,143.32417524367997,
Left_congruent,"(-0.4, 0)",T,4,2,2,0,2,0,0,16,16,64,,,,,,,,,,,556.4088947998825,557.4107538999524,557.4107538999524,557.6103645998519,557.6103645998519,557.6103645998519,4,1,0.4804241000674665,558.1025601997972,558.4499353999272,,,,,,,,,,999,,,,,,2023-02-01_13h51.33.741,Exp_1_Simon_task,2022.2.4,999,143.32417524367997,
Right_incongruent,"(-0.4, 0)",X,5,16,2,0,2,0,0,17,17,55,,,,,,,,,,,558.650990499882,559.6512394999154,559.6512394999154,559.8567458998878,559.8567458998878,559.8567458998878,5,1,0.44682969991117716,560.3105734998826,560.6659570999909,,560.6595672999974,,,,,,,,999,,,,,,2023-02-01_13h51.33.741,Exp_1_Simon_task,2022.2.4,999,143.32417524367997,
Right_congruent,"(0.4, 0)",X,5,8,2,0,2,0,0,18,18,38,,,,,,,,,,,560.8662366999779,561.8726681999397,561.8726681999397,562.0601053999271,562.0601053999271,562.0601053999271,5,1,0.3617614998947829,562.4288919998799,562.782026699977,,,,,,,,,,999,,,,,,2023-02-01_13h51.33.741,Exp_1_Simon_task,2022.2.4,999,143.32417524367997,
Left_congruent,"(-0.4, 0)",T,4,2,2,0,2,0,0,19,19,56,,,,,,,,,,,562.9828747999854,,563.9732215998229,564.1745213998947,564.1745213998947,564.1745213998947,5,0,0.04039480001665652,564.2231356999837,564.5730396998115,564.1745213998947,,,,,,,,,999,,,,,,2023-02-01_13h51.33.741,Exp_1_Simon_task,2022.2.4,999,143.32417524367997,
Right_incongruent,"(-0.4, 0)",X,5,16,2,0,2,0,0,20,20,47,,,,,,,,,,,564.7756665998604,565.780416399939,565.780416399939,565.97617239994,565.97617239994,565.97617239994,5,1,0.489557399880141,566.4744500999805,566.8301210999489,,,,,,,,,,999,,,,,,2023-02-01_13h51.33.741,Exp_1_Simon_task,2022.2.4,999,143.32417524367997,
Right_congruent,"(0.4, 0)",X,5,8,2,0,2,0,0,21,21,74,,,,,,,,,,,567.0245762998238,568.024851599941,568.024851599941,568.2282449000049,568.2282449000049,568.2282449000049,5,1,0.28355529997497797,568.5179798000026,568.8722394998185,,,,,,,,,,999,,,,,,2023-02-01_13h51.33.741,Exp_1_Simon_task,2022.2.4,999,143.32417524367997,
Left_congruent,"(-0.4, 0)",T,4,2,2,0,2,0,0,22,22,20,,,,,,,,,,,569.0728216997813,570.0737997998949,570.0737997998949,570.2757094998378,570.2757094998378,570.2757094998378,4,1,0.5695313999895006,570.8517801999114,571.2045792997815,,,,,,,,,,999,,,,,,2023-02-01_13h51.33.741,Exp_1_Simon_task,2022.2.4,999,143.32417524367997,
Right_incongruent,"(-0.4, 0)",X,5,16,2,0,2,0,0,23,23,11,,,,,,,,,,,571.4033605998848,572.4060088999104,572.4060088999104,572.6107132998295,572.6107132998295,572.6107132998295,4,0,0.35888030007481575,572.9751210999675,573.3310898998752,,,,,,,,,,999,,,,,,2023-02-01_13h51.33.741,Exp_1_Simon_task,2022.2.4,999,143.32417524367997,
Right_congruent,"(0.4, 0)",X,5,8,2,0,2,0,0,24,24,22,,,,,,,,,,,573.532857599901,574.5351123998407,574.5351123998407,574.7319047998171,574.7319047998171,574.7319047998171,5,1,0.20840119989588857,574.9473825998139,575.301341699902,,,,,,,,,,999,,,,,,2023-02-01_13h51.33.741,Exp_1_Simon_task,2022.2.4,999,143.32417524367997,
Right_incongruent,"(-0.4, 0)",X,5,16,2,0,2,0,0,25,25,79,,,,,,,,,,,575.5027912999503,,576.4958459998015,576.6972408997826,576.6972408997826,576.6972408997826,4,0,0.320108599960804,577.0321796999779,577.3783734999597,576.6972408997826,,,,,,,,,999,,,,,,2023-02-01_13h51.33.741,Exp_1_Simon_task,2022.2.4,999,143.32417524367997,
Right_congruent,"(0.4, 0)",X,5,8,2,0,2,0,0,26,26,18,,,,,,,,,,,577.5812977999449,578.5791526997928,578.5791526997928,578.7761680998374,578.7761680998374,578.7761680998374,5,1,0.22797210002318025,579.0110308998264,579.3656422998756,,,,,,,,,,999,,,,,,2023-02-01_13h51.33.741,Exp_1_Simon_task,2022.2.4,999,143.32417524367997,
Left_congruent,"(-0.4, 0)",T,4,2,2,0,2,0,0,27,27,4,,,,,,,,,,,579.566209499957,,580.5585160998162,580.7603755998425,580.7603755998425,580.7603755998425,4,1,0.34798960015177727,581.1147613998037,581.4695742998738,,,,,,,,,,999,,,,,,2023-02-01_13h51.33.741,Exp_1_Simon_task,2022.2.4,999,143.32417524367997,
Left_incongruent,"(0.4, 0)",T,4,4,2,0,2,0,0,28,28,53,,,,,,,,,,,581.6726663999725,582.6706691998988,582.6706691998988,582.8717242998537,582.8717242998537,582.8717242998537,5,0,0.22559439996257424,583.1086548999883,583.4558900999837,,,,,,,,,,999,,,,,,2023-02-01_13h51.33.741,Exp_1_Simon_task,2022.2.4,999,143.32417524367997,
Left_incongruent,"(0.4, 0)",T,4,4,2,0,2,0,0,29,29,61,,,,,,,,,,,583.656844599871,584.6612495000008,584.6612495000008,584.8615797997918,584.8615797997918,584.8615797997918,4,1,0.5062557999044657,585.3749759998173,585.7315862998366,,585.7246589998249,,,,,,,,999,,,,,,2023-02-01_13h51.33.741,Exp_1_Simon_task,2022.2.4,999,143.32417524367997,
Right_incongruent,"(-0.4, 0)",X,5,16,2,0,2,0,0,30,30,43,,,,,,,,,,,585.9260890998412,586.926096299896,586.926096299896,587.1273628999479,587.1273628999479,587.1273628999479,5,1,0.2593412999995053,587.3994220998138,587.7455525998957,,,,,,,,,,999,,,,,,2023-02-01_13h51.33.741,Exp_1_Simon_task,2022.2.4,999,143.32417524367997,
Left_incongruent,"(0.4, 0)",T,4,4,2,0,2,0,0,31,31,41,,,,,,,,,,,587.9481043999549,588.9486425998621,588.9486425998621,589.1496454998851,589.1496454998851,589.1496454998851,4,1,0.6179601999465376,589.7743870997801,590.1292068997864,,,,,,,,,,999,,,,,,2023-02-01_13h51.33.741,Exp_1_Simon_task,2022.2.4,999,143.32417524367997,
Left_congruent,"(-0.4, 0)",T,4,2,2,0,2,0,0,32,32,36,,,,,,,,,,,590.3312952998094,591.3291335999966,591.3291335999966,591.5254785998259,591.5254785998259,591.5254785998259,4,1,0.35315469978377223,591.8845253000036,592.2386101000011,,,,,,,,,,999,,,,,,2023-02-01_13h51.33.741,Exp_1_Simon_task,2022.2.4,999,143.32417524367997,
Right_incongruent,"(-0.4, 0)",X,5,16,2,0,2,0,0,33,33,31,,,,,,,,,,,592.4409853999969,593.4415606998373,593.4415606998373,593.6428030999377,593.6428030999377,593.6428030999377,4,0,0.3264584999997169,593.9773430000059,594.3299957998097,,,,,,,,,,999,,,,,,2023-02-01_13h51.33.741,Exp_1_Simon_task,2022.2.4,999,143.32417524367997,
Right_congruent,"(0.4, 0)",X,5,8,2,0,2,0,0,34,34,42,,,,,,,,,,,594.5320749999955,595.5353409999516,595.5353409999516,595.7293506998103,595.7293506998103,595.7293506998103,5,1,0.3369593999814242,596.0731643999461,596.4264559999574,,,,,,,,,,999,,,,,,2023-02-01_13h51.33.741,Exp_1_Simon_task,2022.2.4,999,143.32417524367997,
Right_incongruent,"(-0.4, 0)",X,5,16,2,0,2,0,0,35,35,27,,,,,,,,,,,596.6275078000035,597.6292870999314,597.6292870999314,597.8291776999831,597.8291776999831,597.8291776999831,5,1,0.08354909997433424,597.9199077999219,598.2763783999253,,,,,,,,,,999,,,,,,2023-02-01_13h51.33.741,Exp_1_Simon_task,2022.2.4,999,143.32417524367997,
Left_incongruent,"(0.4, 0)",T,4,4,2,0,2,0,0,36,36,1,,,,,,,,,,,598.4692773998249,,599.46859879978,599.6704380998854,599.6704380998854,599.6704380998854,4,1,0.6112869000062346,600.2879356998019,600.6421648999676,599.6704380998854,,,,,,,,,999,,,,,,2023-02-01_13h51.33.741,Exp_1_Simon_task,2022.2.4,999,143.32417524367997,
Left_congruent,"(-0.4, 0)",T,4,2,2,0,2,0,0,37,37,76,,,,,,,,,,,600.8430565998424,601.8432826998178,601.8432826998178,602.045435299864,602.045435299864,602.045435299864,4,1,0.3543589001055807,602.4066775999963,602.7589649998117,,,,,,,,,,999,,,,,,2023-02-01_13h51.33.741,Exp_1_Simon_task,2022.2.4,999,143.32417524367997,
Left_congruent,"(-0.4, 0)",T,4,2,2,0,2,0,0,38,38,16,,,,,,,,,,,602.9637693997938,603.9685689997859,603.9685689997859,604.1574579998851,604.1574579998851,604.1574579998851,4,1,0.45056340005248785,604.6136862998828,604.9674600998405,,,,,,,,,,999,,,,,,2023-02-01_13h51.33.741,Exp_1_Simon_task,2022.2.4,999,143.32417524367997,
Right_incongruent,"(-0.4, 0)",X,5,16,2,0,2,0,0,39,39,39,,,,,,,,,,,605.1692051999271,606.1732300999574,606.1732300999574,606.3704063999467,606.3704063999467,606.3704063999467,4,0,0.39675790001638234,606.7739113999996,607.1269886998925,,,,,,,,,,999,,,,,,2023-02-01_13h51.33.741,Exp_1_Simon_task,2022.2.4,999,143.32417524367997,
Right_incongruent,"(-0.4, 0)",X,5,16,2,0,2,0,0,40,40,63,,,,,,,,,,,607.3297585998662,608.3290712998714,608.3290712998714,608.5312808000017,608.5312808000017,608.5312808000017,5,1,0.340560199925676,608.879794599954,609.2322223999072,,,,,,,,,,999,,,,,,2023-02-01_13h51.33.741,Exp_1_Simon_task,2022.2.4,999,143.32417524367997,
Left_incongruent,"(0.4, 0)",T,4,4,2,0,2,0,0,41,41,69,,,,,,,,,,,609.432708799839,610.434167600004,610.434167600004,610.6347794998437,610.6347794998437,610.6347794998437,4,1,0.5839420999400318,611.2257663998753,611.5791520997882,,,,,,,,,,999,,,,,,2023-02-01_13h51.33.741,Exp_1_Simon_task,2022.2.4,999,143.32417524367997,
Left_congruent,"(-0.4, 0)",T,4,2,2,0,2,0,0,42,42,8,,,,,,,,,,,611.7813205998391,612.7829007999972,612.7829007999972,612.9802447999828,612.9802447999828,612.9802447999828,4,1,0.37759739998728037,613.3632640999276,613.717015999835,,,,,,,,,,999,,,,,,2023-02-01_13h51.33.741,Exp_1_Simon_task,2022.2.4,999,143.32417524367997,
Right_congruent,"(0.4, 0)",X,5,8,2,0,2,0,0,43,43,58,,,,,,,,,,,613.9187400999945,,614.907201499911,615.1098335999995,615.1098335999995,615.1098335999995,5,1,0.3522900000680238,615.4687969998922,615.8263373998925,615.1098335999995,615.8194167998154,,,,,,,,999,,,,,,2023-02-01_13h51.33.741,Exp_1_Simon_task,2022.2.4,999,143.32417524367997,
Left_congruent,"(-0.4, 0)",T,4,2,2,0,2,0,0,44,44,12,,,,,,,,,,,616.0217406998854,,617.0163838998415,617.2179777999409,617.2179777999409,617.2179777999409,4,1,0.18053849996067584,617.4048529998399,617.759821599815,617.2179777999409,,,,,,,,,999,,,,,,2023-02-01_13h51.33.741,Exp_1_Simon_task,2022.2.4,999,143.32417524367997,
Right_incongruent,"(-0.4, 0)",X,5,16,2,0,2,0,0,45,45,35,,,,,,,,,,,617.9601449999027,618.9615209999029,618.9615209999029,619.1641958998516,619.1641958998516,619.1641958998516,4,0,0.34582150005735457,619.5182961998507,619.8713050999213,,,,,,,,,,999,,,,,,2023-02-01_13h51.33.741,Exp_1_Simon_task,2022.2.4,999,143.32417524367997,
Right_congruent,"(0.4, 0)",X,5,8,2,0,2,0,0,46,46,70,,,,,,,,,,,620.0726411999203,,621.0655828998424,621.2659996999428,621.2659996999428,621.2659996999428,5,1,0.32784849987365305,621.601317799883,621.9536225998309,621.2659996999428,,,,,,,,,999,,,,,,2023-02-01_13h51.33.741,Exp_1_Simon_task,2022.2.4,999,143.32417524367997,
Left_incongruent,"(0.4, 0)",T,4,4,2,0,2,0,0,47,47,9,,,,,,,,,,,622.157582799904,623.1627235999331,623.1627235999331,623.357273499947,623.357273499947,623.357273499947,5,0,0.31936169997788966,623.6838034999091,624.0367152998224,,,,,,,,,,999,,,,,,2023-02-01_13h51.33.741,Exp_1_Simon_task,2022.2.4,999,143.32417524367997,
Left_incongruent,"(0.4, 0)",T,4,4,2,0,2,0,0,48,48,73,,,,,,,,,,,624.2376290999819,,625.231452499982,625.4372288999148,625.4372288999148,625.4372288999148,5,0,0.38116620015352964,625.8260117999744,626.1754365998786,,,,,,,,,,999,,,,,,2023-02-01_13h51.33.741,Exp_1_Simon_task,2022.2.4,999,143.32417524367997,
Right_incongruent,"(-0.4, 0)",X,5,16,2,0,2,0,0,49,49,75,,,,,,,,,,,626.3777830998879,627.3841773997992,627.3841773997992,627.5818205999676,627.5818205999676,627.5818205999676,5,1,0.8658284998964518,628.4558225998189,628.8080681997817,,,,,,,,,,999,,,,,,2023-02-01_13h51.33.741,Exp_1_Simon_task,2022.2.4,999,143.32417524367997,
Left_incongruent,"(0.4, 0)",T,4,4,2,0,2,0,0,50,50,77,,,,,,,,,,,629.009821199812,630.0082639998291,630.0082639998291,630.2102438998409,630.2102438998409,630.2102438998409,4,1,0.4454120001755655,630.661022799788,631.0164234999102,,,,,,,,,,999,,,,,,2023-02-01_13h51.33.741,Exp_1_Simon_task,2022.2.4,999,143.32417524367997,
Right_congruent,"(0.4, 0)",X,5,8,2,0,2,0,0,51,51,66,,,,,,,,,,,631.2188273998909,,632.2104673997965,632.4118332997896,632.4118332997896,632.4118332997896,4,0,0.6325349998660386,633.0515903998166,633.4040661999024,632.4118332997896,,,,,,,,,999,,,,,,2023-02-01_13h51.33.741,Exp_1_Simon_task,2022.2.4,999,143.32417524367997,
Right_incongruent,"(-0.4, 0)",X,5,16,2,0,2,0,0,52,52,15,,,,,,,,,,,633.6006182997953,,634.598438099958,634.7978709999006,634.7978709999006,634.7978709999006,5,1,0.13060100004076958,634.9378019999713,635.2905186999124,634.7978709999006,,,,,,,,,999,,,,,,2023-02-01_13h51.33.741,Exp_1_Simon_task,2022.2.4,999,143.32417524367997,
Left_incongruent,"(0.4, 0)",T,4,4,2,0,2,0,0,53,53,13,,,,,,,,,,,635.491672599921,636.494319499936,636.494319499936,636.6883550998755,636.6883550998755,636.6883550998755,4,1,0.4593644000124186,637.1536206998862,637.5089762997814,,,,,,,,,,999,,,,,,2023-02-01_13h51.33.741,Exp_1_Simon_task,2022.2.4,999,143.32417524367997,
Left_congruent,"(-0.4, 0)",T,4,2,2,0,2,0,0,54,54,44,,,,,,,,,,,637.7172629998531,638.7176452998538,638.7176452998538,638.9054143999238,638.9054143999238,638.9054143999238,4,1,0.14583779987879097,639.056809599977,639.4121613998432,,,,,,,,,,999,,,,,,2023-02-01_13h51.33.741,Exp_1_Simon_task,2022.2.4,999,143.32417524367997,
Left_incongruent,"(0.4, 0)",T,4,4,2,0,2,0,0,55,55,57,,,,,,,,,,,639.612110799877,640.6140780998394,640.6140780998394,640.8137925998308,640.8137925998308,640.8137925998308,5,0,0.45233600004576147,641.2748574998695,641.6320505999029,,,,,,,,,,999,,,,,,2023-02-01_13h51.33.741,Exp_1_Simon_task,2022.2.4,999,143.32417524367997,
Left_congruent,"(-0.4, 0)",T,4,2,2,0,2,0,0,56,56,28,,,,,,,,,,,641.8289794998709,642.8330802998971,642.8330802998971,643.0234566999134,643.0234566999134,643.0234566999134,4,1,0.5205659000203013,643.5499975997955,643.9056038998533,,,,,,,,,,999,,,,,,2023-02-01_13h51.33.741,Exp_1_Simon_task,2022.2.4,999,143.32417524367997,
Right_congruent,"(0.4, 0)",X,5,8,2,0,2,0,0,57,57,14,,,,,,,,,,,644.104879999999,,645.1000953000039,645.3028700998984,645.3028700998984,645.3028700998984,4,0,0.09504349995404482,645.4060239999089,645.7586749999318,645.3028700998984,,,,,,,,,999,,,,,,2023-02-01_13h51.33.741,Exp_1_Simon_task,2022.2.4,999,143.32417524367997,
Left_incongruent,"(0.4, 0)",T,4,4,2,0,2,0,0,58,58,17,,,,,,,,,,,645.9611475998536,646.9592045999598,646.9592045999598,647.1624280998949,647.1624280998949,647.1624280998949,5,0,0.16261149989441037,647.3339169998653,647.6857436997816,,,,,,,,,,999,,,,,,2023-02-01_13h51.33.741,Exp_1_Simon_task,2022.2.4,999,143.32417524367997,
Left_incongruent,"(0.4, 0)",T,4,4,2,0,2,0,0,59,59,49,,,,,,,,,,,647.8827519000042,648.8828599997796,648.8828599997796,649.0841960997786,649.0841960997786,649.0841960997786,4,1,0.07012789999134839,649.1618774998933,649.5152576998807,,,,,,,,,,999,,,,,,2023-02-01_13h51.33.741,Exp_1_Simon_task,2022.2.4,999,143.32417524367997,
Left_congruent,"(-0.4, 0)",T,4,2,2,0,2,0,0,60,60,32,,,,,,,,,,,649.7165329998825,650.7172873998061,650.7172873998061,650.917523099808,650.917523099808,650.917523099808,4,1,0.34866919997148216,651.2727466998622,651.6257333999965,,,,,,,,,,999,,,,,,2023-02-01_13h51.33.741,Exp_1_Simon_task,2022.2.4,999,143.32417524367997,
Right_congruent,"(0.4, 0)",X,5,8,2,0,2,0,0,61,61,6,,,,,,,,,,,651.8285813999828,,652.8202114999294,653.0228923999239,653.0228923999239,653.0228923999239,5,1,0.4182274998165667,653.4490992999636,653.8007594998926,653.0228923999239,,,,,,,,,999,,,,,,2023-02-01_13h51.33.741,Exp_1_Simon_task,2022.2.4,999,143.32417524367997,
Left_congruent,"(-0.4, 0)",T,4,2,2,0,2,0,0,62,62,0,,,,,,,,,,,654.003810599912,655.0009887998458,655.0009887998458,655.2019532998092,655.2019532998092,655.2019532998092,4,1,0.41434170003049076,655.6220983997919,655.9803665999789,,655.9746878999285,,,,,,,,999,,,,,,2023-02-01_13h51.33.741,Exp_1_Simon_task,2022.2.4,999,143.32417524367997,
Left_incongruent,"(0.4, 0)",T,4,4,2,0,2,0,0,63,63,37,,,,,,,,,,,656.175459299935,657.1741436999291,657.1741436999291,657.3737047999166,657.3737047999166,657.3737047999166,5,0,0.3740730001591146,657.7549829999916,658.1114221999887,,658.1044769999571,,,,,,,,999,,,,,,2023-02-01_13h51.33.741,Exp_1_Simon_task,2022.2.4,999,143.32417524367997,
Left_congruent,"(-0.4, 0)",T,4,2,2,0,2,0,0,64,64,60,,,,,,,,,,,658.3058441998437,659.3058126999531,659.3058126999531,659.5074331997894,659.5074331997894,659.5074331997894,4,1,0.4450376001186669,659.9629915999249,660.3127835998312,,,,,,,,,,999,,,,,,2023-02-01_13h51.33.741,Exp_1_Simon_task,2022.2.4,999,143.32417524367997,
Right_congruent,"(0.4, 0)",X,5,8,2,0,2,0,0,65,65,2,,,,,,,,,,,660.5141817999538,,661.5085058999248,661.7112892000005,661.7112892000005,661.7112892000005,5,1,0.4642677998635918,662.1811483998317,662.5396880998742,661.7112892000005,662.5328706,,,,,,,,999,,,,,,2023-02-01_13h51.33.741,Exp_1_Simon_task,2022.2.4,999,143.32417524367997,
Right_congruent,"(0.4, 0)",X,5,8,2,0,2,0,0,66,66,54,,,,,,,,,,,662.7379336999729,663.7449831999838,663.7449831999838,663.9393330998719,663.9393330998719,663.9393330998719,5,1,0.4557348000817001,664.4057652999181,664.7574018999003,,,,,,,,,,999,,,,,,2023-02-01_13h51.33.741,Exp_1_Simon_task,2022.2.4,999,143.32417524367997,
Right_incongruent,"(-0.4, 0)",X,5,16,2,0,2,0,0,67,67,71,,,,,,,,,,,664.9549734999891,665.9616723000072,665.9616723000072,666.158266399987,666.158266399987,666.158266399987,5,1,0.5657987000886351,666.7300190997776,667.086933999788,,667.0804530999158,,,,,,,,999,,,,,,2023-02-01_13h51.33.741,Exp_1_Simon_task,2022.2.4,999,143.32417524367997,
Left_incongruent,"(0.4, 0)",T,4,4,2,0,2,0,0,68,68,25,,,,,,,,,,,667.2868963999208,668.2867563997861,668.2867563997861,668.4822525999043,668.4822525999043,668.4822525999043,4,1,0.3838886001612991,668.872970599914,669.223217099905,,,,,,,,,,999,,,,,,2023-02-01_13h51.33.741,Exp_1_Simon_task,2022.2.4,999,143.32417524367997,
Right_incongruent,"(-0.4, 0)",X,5,16,2,0,2,0,0,69,69,23,,,,,,,,,,,669.4253662999254,670.4244546999689,670.4244546999689,670.6255463999696,670.6255463999696,670.6255463999696,5,1,0.47336750011891127,671.105735699879,671.4589422999416,,,,,,,,,,999,,,,,,2023-02-01_13h51.33.741,Exp_1_Simon_task,2022.2.4,999,143.32417524367997,
Right_incongruent,"(-0.4, 0)",X,5,16,2,0,2,0,0,70,70,7,,,,,,,,,,,671.6595997998957,672.6598766997922,672.6598766997922,672.8579143998213,672.8579143998213,672.8579143998213,5,1,0.5948198998812586,673.4654437999707,673.8124868997838,,,,,,,,,,999,,,,,,2023-02-01_13h51.33.741,Exp_1_Simon_task,2022.2.4,999,143.32417524367997,
Left_incongruent,"(0.4, 0)",T,4,4,2,0,2,0,0,71,71,33,,,,,,,,,,,674.0139690998476,675.0152594998945,675.0152594998945,675.2170123998076,675.2170123998076,675.2170123998076,5,0,0.8334532000590116,676.0587290998083,676.4103784998879,,,,,,,,,,999,,,,,,2023-02-01_13h51.33.741,Exp_1_Simon_task,2022.2.4,999,143.32417524367997,
Left_congruent,"(-0.4, 0)",T,4,2,2,0,2,0,0,72,72,24,,,,,,,,,,,676.6129392997827,677.6163509998005,677.6163509998005,677.8172906998079,677.8172906998079,677.8172906998079,5,0,0.3330353000201285,678.1588343998883,678.5146091999486,,,,,,,,,,999,,,,,,2023-02-01_13h51.33.741,Exp_1_Simon_task,2022.2.4,999,143.32417524367997,
Left_incongruent,"(0.4, 0)",T,4,4,2,0,2,0,0,73,73,29,,,,,,,,,,,678.7089849999174,679.7089727998246,679.7089727998246,679.9098045998253,679.9098045998253,679.9098045998253,5,0,0.6185200000181794,680.538982699858,680.8920819999184,,,,,,,,,,999,,,,,,2023-02-01_13h51.33.741,Exp_1_Simon_task,2022.2.4,999,143.32417524367997,
Right_congruent,"(0.4, 0)",X,5,8,2,0,2,0,0,74,74,46,,,,,,,,,,,681.0914362999611,682.0903340999503,682.0903340999503,682.2913053999655,682.2913053999655,682.2913053999655,5,1,0.44622689997777343,682.7443411999848,683.0982176999096,,,,,,,,,,999,,,,,,2023-02-01_13h51.33.741,Exp_1_Simon_task,2022.2.4,999,143.32417524367997,
Right_congruent,"(0.4, 0)",X,5,8,2,0,2,0,0,75,75,62,,,,,,,,,,,683.3000608999282,,684.2916275998577,684.4964211999904,684.4964211999904,684.4964211999904,5,1,0.4215853998903185,684.9249984999187,685.2791209998541,,,,,,,,,,999,,,,,,2023-02-01_13h51.33.741,Exp_1_Simon_task,2022.2.4,999,143.32417524367997,
Right_incongruent,"(-0.4, 0)",X,5,16,2,0,2,0,0,76,76,51,,,,,,,,,,,685.4793233999517,686.4788794999477,686.4788794999477,686.6782249999233,686.6782249999233,686.6782249999233,5,1,0.5585330000612885,687.2430583999958,687.597507599974,,,,,,,,,,999,,,,,,2023-02-01_13h51.33.741,Exp_1_Simon_task,2022.2.4,999,143.32417524367997,
Left_incongruent,"(0.4, 0)",T,4,4,2,0,2,0,0,77,77,21,,,,,,,,,,,687.7981600000057,688.7984248998109,688.7984248998109,688.9997672999743,688.9997672999743,688.9997672999743,4,1,0.5071489999536425,689.5136912998278,689.8690558997914,,,,,,,,,,999,,,,,,2023-02-01_13h51.33.741,Exp_1_Simon_task,2022.2.4,999,143.32417524367997,
Left_congruent,"(-0.4, 0)",T,4,2,2,0,2,0,0,78,78,72,,,,,,,,,,,690.0701690998394,691.069281199947,691.069281199947,691.2647758999374,691.2647758999374,691.2647758999374,4,1,0.372203900013119,691.6505330000073,691.9995575000066,,,,,,,,,,999,,,,,,2023-02-01_13h51.33.741,Exp_1_Simon_task,2022.2.4,999,143.32417524367997,
Right_congruent,"(0.4, 0)",X,5,8,2,0,2,0,0,79,79,34,,,,,,,,,,,692.2007105997764,,693.1890334999189,693.389972299803,693.389972299803,693.389972299803,5,1,0.3543638999108225,693.749606099911,694.1051977998577,693.389972299803,,,,,,,,,999,,,,,,2023-02-01_13h51.33.741,Exp_1_Simon_task,2022.2.4,999,143.32417524367997,
Right_incongruent,"(-0.4, 0)",X,5,16,3,0,3,0,0,0,0,59,,,,,,,694.3187529998831,694.3187529998831,space,18.591001000022516,712.9528014999814,713.9547488999087,713.9547488999087,714.1287280998658,714.1287280998658,714.1287280998658,4,0,0.5236427998170257,714.665004799841,715.0138958999887,,,,,,,,,,999,,,,,,2023-02-01_13h51.33.741,Exp_1_Simon_task,2022.2.4,999,143.32417524367997,
Left_incongruent,"(0.4, 0)",T,4,4,3,0,3,0,0,1,1,13,,,,,,,,,,,715.2141936998814,,716.2081154999323,716.408955699997,716.408955699997,716.408955699997,5,0,0.1483096000738442,716.5707467999309,716.9168312998954,716.408955699997,,,,,,,,,999,,,,,,2023-02-01_13h51.33.741,Exp_1_Simon_task,2022.2.4,999,143.32417524367997,
Right_congruent,"(0.4, 0)",X,5,8,3,0,3,0,0,2,2,6,,,,,,,,,,,717.1183681997936,718.1183144999668,718.1183144999668,718.3274585998151,718.3274585998151,718.3274585998151,4,0,0.37351249996572733,718.7144337999634,719.0627975999378,,,,,,,,,,999,,,,,,2023-02-01_13h51.33.741,Exp_1_Simon_task,2022.2.4,999,143.32417524367997,
Right_congruent,"(0.4, 0)",X,5,8,3,0,3,0,0,3,3,30,,,,,,,,,,,719.2641548998654,720.2641768998001,720.2641768998001,720.4639928999823,720.4639928999823,720.4639928999823,5,1,0.3947129000443965,720.8672018998768,721.2211662998889,,,,,,,,,,999,,,,,,2023-02-01_13h51.33.741,Exp_1_Simon_task,2022.2.4,999,143.32417524367997,
Right_incongruent,"(-0.4, 0)",X,5,16,3,0,3,0,0,4,4,63,,,,,,,,,,,721.4221513997763,722.4238858998287,722.4238858998287,722.6169517999515,722.6169517999515,722.6169517999515,5,1,0.3353893000166863,722.9636302997824,723.31266029994,,,,,,,,,,999,,,,,,2023-02-01_13h51.33.741,Exp_1_Simon_task,2022.2.4,999,143.32417524367997,
Right_incongruent,"(-0.4, 0)",X,5,16,3,0,3,0,0,5,5,39,,,,,,,,,,,723.513927299995,724.5132664998528,724.5132664998528,724.7166821998544,724.7166821998544,724.7166821998544,5,1,0.3699441999197006,725.0943390999455,725.4473923998885,,,,,,,,,,999,,,,,,2023-02-01_13h51.33.741,Exp_1_Simon_task,2022.2.4,999,143.32417524367997,
Left_congruent,"(-0.4, 0)",T,4,2,3,0,3,0,0,6,6,20,,,,,,,,,,,725.644363099942,726.6457020998932,726.6457020998932,726.8470738998149,726.8470738998149,726.8470738998149,4,1,0.4366905998904258,727.2940330998972,727.6516722999513,,,,,,,,,,999,,,,,,2023-02-01_13h51.33.741,Exp_1_Simon_task,2022.2.4,999,143.32417524367997,
Left_incongruent,"(0.4, 0)",T,4,4,3,0,3,0,0,7,7,17,,,,,,,,,,,727.8456682998221,728.84663119982,728.84663119982,729.0483963999432,729.0483963999432,729.0483963999432,4,1,0.4440064998343587,729.4996946998872,729.8538010998163,,,,,,,,,,999,,,,,,2023-02-01_13h51.33.741,Exp_1_Simon_task,2022.2.4,999,143.32417524367997,
Left_congruent,"(-0.4, 0)",T,4,2,3,0,3,0,0,8,8,60,,,,,,,,,,,730.0548116997816,731.0541044999845,731.0541044999845,731.2552707998548,731.2552707998548,731.2552707998548,4,1,0.348655299982056,731.6107262999285,731.9633257999085,,,,,,,,,,999,,,,,,2023-02-01_13h51.33.741,Exp_1_Simon_task,2022.2.4,999,143.32417524367997,
Right_incongruent,"(-0.4, 0)",X,5,16,3,0,3,0,0,9,9,67,,,,,,,,,,,732.1647082997952,,733.1595152998343,733.3610514998436,733.3610514998436,733.3610514998436,5,1,0.4446455999277532,733.8128759998363,734.168229599949,733.3610514998436,734.1613331998233,,,,,,,,999,,,,,,2023-02-01_13h51.33.741,Exp_1_Simon_task,2022.2.4,999,143.32417524367997,
Right_congruent,"(0.4, 0)",X,5,8,3,0,3,0,0,10,10,14,,,,,,,,,,,734.3662213999778,735.3659220999107,735.3659220999107,735.5696201999672,735.5696201999672,735.5696201999672,5,1,0.29868569993413985,735.8756697999779,736.228067799937,,,,,,,,,,999,,,,,,2023-02-01_13h51.33.741,Exp_1_Simon_task,2022.2.4,999,143.32417524367997,
Left_congruent,"(-0.4, 0)",T,4,2,3,0,3,0,0,11,11,52,,,,,,,,,,,736.4306253998075,737.4410366998054,737.4410366998054,737.6275543998927,737.6275543998927,737.6275543998927,4,1,0.30126720014959574,737.9409356999677,738.2918590998743,,,,,,,,,,999,,,,,,2023-02-01_13h51.33.741,Exp_1_Simon_task,2022.2.4,999,143.32417524367997,
Left_congruent,"(-0.4, 0)",T,4,2,3,0,3,0,0,12,12,28,,,,,,,,,,,738.4899311999325,,739.4847271000035,739.6861948999576,739.6861948999576,739.6861948999576,4,1,0.3624853999353945,740.0543542997912,740.4078016998246,739.6861948999576,,,,,,,,,999,,,,,,2023-02-01_13h51.33.741,Exp_1_Simon_task,2022.2.4,999,143.32417524367997,
Left_congruent,"(-0.4, 0)",T,4,2,3,0,3,0,0,13,13,16,,,,,,,,,,,740.6080437998753,741.6090692998841,741.6090692998841,741.8114792997949,741.8114792997949,741.8114792997949,4,1,0.3191416999325156,742.1389978998341,742.491349299904,,,,,,,,,,999,,,,,,2023-02-01_13h51.33.741,Exp_1_Simon_task,2022.2.4,999,143.32417524367997,
Right_congruent,"(0.4, 0)",X,5,8,3,0,3,0,0,14,14,22,,,,,,,,,,,742.6935675998684,,743.6869424998295,743.8870979999192,743.8870979999192,743.8870979999192,5,1,0.3068623999133706,744.199229599908,744.5540163998958,743.8870979999192,,,,,,,,,999,,,,,,2023-02-01_13h51.33.741,Exp_1_Simon_task,2022.2.4,999,143.32417524367997,
Left_incongruent,"(0.4, 0)",T,4,4,3,0,3,0,0,15,15,61,,,,,,,,,,,744.7623406997882,745.7633399998304,745.7633399998304,745.9579215999693,745.9579215999693,745.9579215999693,5,0,0.3394434000365436,746.3036203999072,746.6591421999037,,,,,,,,,,999,,,,,,2023-02-01_13h51.33.741,Exp_1_Simon_task,2022.2.4,999,143.32417524367997,
Left_incongruent,"(0.4, 0)",T,4,4,3,0,3,0,0,16,16,57,,,,,,,,,,,746.8590420999099,747.8606449000072,747.8606449000072,748.0535667999648,748.0535667999648,748.0535667999648,4,1,0.1327338998671621,748.1935992999934,748.5505903000012,,,,,,,,,,999,,,,,,2023-02-01_13h51.33.741,Exp_1_Simon_task,2022.2.4,999,143.32417524367997,
Left_incongruent,"(0.4, 0)",T,4,4,3,0,3,0,0,17,17,53,,,,,,,,,,,748.7493968999479,749.7528017999139,749.7528017999139,749.943405599799,749.943405599799,749.943405599799,4,1,0.5212479000911117,750.4711236997973,750.8245620999951,,,,,,,,,,999,,,,,,2023-02-01_13h51.33.741,Exp_1_Simon_task,2022.2.4,999,143.32417524367997,
Right_congruent,"(0.4, 0)",X,5,8,3,0,3,0,0,18,18,26,,,,,,,,,,,751.0286899998318,752.0330775999464,752.0330775999464,752.2227950999513,752.2227950999513,752.2227950999513,5,1,0.3961644999217242,752.627316699829,752.9771698999684,,,,,,,,,,999,,,,,,2023-02-01_13h51.33.741,Exp_1_Simon_task,2022.2.4,999,143.32417524367997,
Left_incongruent,"(0.4, 0)",T,4,4,3,0,3,0,0,19,19,9,,,,,,,,,,,753.1837227998767,,754.1785513998475,754.384524299996,754.384524299996,754.384524299996,5,0,0.7170698000118136,755.1093709999695,755.4626195998862,,,,,,,,,,999,,,,,,2023-02-01_13h51.33.741,Exp_1_Simon_task,2022.2.4,999,143.32417524367997,
Right_incongruent,"(-0.4, 0)",X,5,16,3,0,3,0,0,20,20,75,,,,,,,,,,,755.6639215999749,,756.6570776998997,756.858349799877,756.858349799877,756.858349799877,4,0,0.15355070005171,757.0185822998174,757.3723497998435,756.858349799877,,,,,,,,,999,,,,,,2023-02-01_13h51.33.741,Exp_1_Simon_task,2022.2.4,999,143.32417524367997,
Right_congruent,"(0.4, 0)",X,5,8,3,0,3,0,0,21,21,46,,,,,,,,,,,757.5740305997897,758.5753538999707,758.5753538999707,758.7768590999767,758.7768590999767,758.7768590999767,5,1,0.055682099889963865,758.8392108997796,759.1917023998685,,,,,,,,,,999,,,,,,2023-02-01_13h51.33.741,Exp_1_Simon_task,2022.2.4,999,143.32417524367997,
Right_incongruent,"(-0.4, 0)",X,5,16,3,0,3,0,0,22,22,19,,,,,,,,,,,759.3933831998147,,760.3871394000016,760.5878069999162,760.5878069999162,760.5878069999162,4,0,0.2441590998787433,760.8443245999515,761.2007235998753,760.5878069999162,,,,,,,,,999,,,,,,2023-02-01_13h51.33.741,Exp_1_Simon_task,2022.2.4,999,143.32417524367997,
Right_incongruent,"(-0.4, 0)",X,5,16,3,0,3,0,0,23,23,11,,,,,,,,,,,761.3955057999119,762.4012086999137,762.4012086999137,762.5970646999776,762.5970646999776,762.5970646999776,5,1,0.26886510010808706,762.8759169999976,763.2252470999956,,,,,,,,,,999,,,,,,2023-02-01_13h51.33.741,Exp_1_Simon_task,2022.2.4,999,143.32417524367997,
Left_congruent,"(-0.4, 0)",T,4,2,3,0,3,0,0,24,24,40,,,,,,,,,,,763.4295722998213,764.4395337998867,764.4395337998867,764.6311055999249,764.6311055999249,764.6311055999249,5,0,0.5759465999435633,765.2141717998311,765.5691167998593,,,,,,,,,,999,,,,,,2023-02-01_13h51.33.741,Exp_1_Simon_task,2022.2.4,999,143.32417524367997,
Left_incongruent,"(0.4, 0)",T,4,4,3,0,3,0,0,25,25,21,,,,,,,,,,,765.773361499887,766.7741719998885,766.7741719998885,766.970769399777,766.970769399777,766.970769399777,5,0,0.4853775999508798,767.4702270999551,767.8179203998297,,,,,,,,,,999,,,,,,2023-02-01_13h51.33.741,Exp_1_Simon_task,2022.2.4,999,143.32417524367997,
Left_incongruent,"(0.4, 0)",T,4,4,3,0,3,0,0,26,26,73,,,,,,,,,,,768.0193239999935,769.0194960997906,769.0194960997906,769.2205814998597,769.2205814998597,769.2205814998597,4,1,0.3602001001127064,769.5872602998279,769.9417176998686,,769.9354248999152,,,,,,,,999,,,,,,2023-02-01_13h51.33.741,Exp_1_Simon_task,2022.2.4,999,143.32417524367997,
Right_incongruent,"(-0.4, 0)",X,5,16,3,0,3,0,0,27,27,3,,,,,,,,,,,770.1405629999936,771.1445540999994,771.1445540999994,771.3376956998836,771.3376956998836,771.3376956998836,4,0,0.223265599925071,771.5690924997907,771.9218623999041,,,,,,,,,,999,,,,,,2023-02-01_13h51.33.741,Exp_1_Simon_task,2022.2.4,999,143.32417524367997,
Right_incongruent,"(-0.4, 0)",X,5,16,3,0,3,0,0,28,28,47,,,,,,,,,,,772.1218018999789,773.1224001999944,773.1224001999944,773.3245749999769,773.3245749999769,773.3245749999769,5,1,0.42430850001983345,773.7547187998425,774.1062929998152,,,,,,,,,,999,,,,,,2023-02-01_13h51.33.741,Exp_1_Simon_task,2022.2.4,999,143.32417524367997,
Left_incongruent,"(0.4, 0)",T,4,4,3,0,3,0,0,29,29,33,,,,,,,,,,,774.3071859998163,775.3069471998606,775.3069471998606,775.5082377998624,775.5082377998624,775.5082377998624,4,1,0.37753619998693466,775.8925531997811,776.2471519999672,,,,,,,,,,999,,,,,,2023-02-01_13h51.33.741,Exp_1_Simon_task,2022.2.4,999,143.32417524367997,
Left_incongruent,"(0.4, 0)",T,4,4,3,0,3,0,0,30,30,1,,,,,,,,,,,776.4479858998675,777.4480310999788,777.4480310999788,777.6498088999651,777.6498088999651,777.6498088999651,4,1,0.3263479000888765,777.9833263999317,778.3416838999838,,,,,,,,,,999,,,,,,2023-02-01_13h51.33.741,Exp_1_Simon_task,2022.2.4,999,143.32417524367997,
Left_incongruent,"(0.4, 0)",T,4,4,3,0,3,0,0,31,31,45,,,,,,,,,,,778.5394295998849,,779.5325425998308,779.7359003999736,779.7359003999736,779.7359003999736,4,1,0.15776249999180436,779.8999208998866,780.2553131999448,779.7359003999736,,,,,,,,,999,,,,,,2023-02-01_13h51.33.741,Exp_1_Simon_task,2022.2.4,999,143.32417524367997,
Right_incongruent,"(-0.4, 0)",X,5,16,3,0,3,0,0,32,32,55,,,,,,,,,,,780.4565039998852,781.4581829998642,781.4581829998642,781.6575618998613,781.6575618998613,781.6575618998613,5,1,0.5139142998959869,782.1786006998736,782.535674299812,,,,,,,,,,999,,,,,,2023-02-01_13h51.33.741,Exp_1_Simon_task,2022.2.4,999,143.32417524367997,
Right_congruent,"(0.4, 0)",X,5,8,3,0,3,0,0,33,33,70,,,,,,,,,,,782.7328219998162,,783.7262196999509,783.9277266999707,783.9277266999707,783.9277266999707,5,1,0.5501330001279712,784.4836416000035,784.843772099819,783.9277266999707,,,,,,,,,999,,,,,,2023-02-01_13h51.33.741,Exp_1_Simon_task,2022.2.4,999,143.32417524367997,
Right_incongruent,"(-0.4, 0)",X,5,16,3,0,3,0,0,34,34,7,,,,,,,,,,,785.0389187999535,786.0431502999272,786.0431502999272,786.2371044999454,786.2371044999454,786.2371044999454,5,1,0.5231751000974327,786.7671193999704,787.1214647998568,,,,,,,,,,999,,,,,,2023-02-01_13h51.33.741,Exp_1_Simon_task,2022.2.4,999,143.32417524367997,
Right_congruent,"(0.4, 0)",X,5,8,3,0,3,0,0,35,35,62,,,,,,,,,,,787.3227698998526,788.322858999949,788.322858999949,788.5177560998127,788.5177560998127,788.5177560998127,5,1,0.45188629999756813,788.9761207997799,789.3312823998276,,,,,,,,,,999,,,,,,2023-02-01_13h51.33.741,Exp_1_Simon_task,2022.2.4,999,143.32417524367997,
Right_incongruent,"(-0.4, 0)",X,5,16,3,0,3,0,0,36,36,23,,,,,,,,,,,789.5326814998407,790.5383684998378,790.5383684998378,790.7271029998083,790.7271029998083,790.7271029998083,5,1,0.4999398000072688,791.2331036999822,791.5871746998746,,,,,,,,,,999,,,,,,2023-02-01_13h51.33.741,Exp_1_Simon_task,2022.2.4,999,143.32417524367997,
Right_incongruent,"(-0.4, 0)",X,5,16,3,0,3,0,0,37,37,35,,,,,,,,,,,791.7896943998057,792.7889442997985,792.7889442997985,792.9899911999237,792.9899911999237,792.9899911999237,5,1,0.43161590001545846,793.4272872998845,793.7813132998999,,,,,,,,,,999,,,,,,2023-02-01_13h51.33.741,Exp_1_Simon_task,2022.2.4,999,143.32417524367997,
Left_congruent,"(-0.4, 0)",T,4,2,3,0,3,0,0,38,38,24,,,,,,,,,,,793.9854815998115,,794.9800159998704,795.1927337998059,795.1927337998059,795.1927337998059,5,0,0.35400089994072914,795.5544243999757,795.9068432999775,,,,,,,,,,999,,,,,,2023-02-01_13h51.33.741,Exp_1_Simon_task,2022.2.4,999,143.32417524367997,
Right_congruent,"(0.4, 0)",X,5,8,3,0,3,0,0,39,39,58,,,,,,,,,,,796.1091385998297,797.112608899828,797.112608899828,797.3063413999043,797.3063413999043,797.3063413999043,4,0,0.11040050000883639,797.4243148998357,797.7751431998331,,,,,,,,,,999,,,,,,2023-02-01_13h51.33.741,Exp_1_Simon_task,2022.2.4,999,143.32417524367997,
Left_incongruent,"(0.4, 0)",T,4,4,3,0,3,0,0,40,40,69,,,,,,,,,,,797.9765310999937,798.9759385997895,798.9759385997895,799.1776570999064,799.1776570999064,799.1776570999064,5,0,0.28535389993339777,799.4694741999265,799.8234824999236,,,,,,,,,,999,,,,,,2023-02-01_13h51.33.741,Exp_1_Simon_task,2022.2.4,999,143.32417524367997,
Left_congruent,"(-0.4, 0)",T,4,2,3,0,3,0,0,41,41,0,,,,,,,,,,,800.0252497999463,801.0259734999854,801.0259734999854,801.2268587998115,801.2268587998115,801.2268587998115,4,1,0.409690200118348,801.6429154998623,801.9920795999933,,,802.190699899802,,,,,,,999,,,,,,2023-02-01_13h51.33.741,Exp_1_Simon_task,2022.2.4,999,143.32417524367997,
Right_congruent,"(0.4, 0)",X,5,8,3,0,3,0,0,42,42,54,,,,,,,,,,,802.190699899802,803.1912592998706,803.1912592998706,803.3922400998417,803.3922400998417,803.3922400998417,5,1,0.3417658000253141,803.7396491998807,804.0974829997867,803.3922400998417,804.0895076999441,,,,,,,,999,,,,,,2023-02-01_13h51.33.741,Exp_1_Simon_task,2022.2.4,999,143.32417524367997,
Right_incongruent,"(-0.4, 0)",X,5,16,3,0,3,0,0,43,43,51,,,,,,,,,,,804.2920633999165,805.2964151999913,805.2964151999913,805.4923721000087,805.4923721000087,805.4923721000087,5,1,0.7202016001101583,806.2187260999344,806.5740493999328,,,,,,,,,,999,,,,,,2023-02-01_13h51.33.741,Exp_1_Simon_task,2022.2.4,999,143.32417524367997,
Left_congruent,"(-0.4, 0)",T,4,2,3,0,3,0,0,44,44,48,,,,,,,,,,,806.7697388997767,,807.7654205998406,807.9657218998764,807.9657218998764,807.9657218998764,5,0,0.42050789995118976,808.3938259999268,808.7461633998901,807.9657218998764,,,,,,,,,999,,,,,,2023-02-01_13h51.33.741,Exp_1_Simon_task,2022.2.4,999,143.32417524367997,
Left_congruent,"(-0.4, 0)",T,4,2,3,0,3,0,0,45,45,64,,,,,,,,,,,808.9546381998807,,809.9410127999727,810.1421280999202,810.1421280999202,810.1421280999202,4,1,0.3551113000139594,810.5030351998284,810.8618860999122,810.1421280999202,810.8573403998744,,,,,,,,999,,,,,,2023-02-01_13h51.33.741,Exp_1_Simon_task,2022.2.4,999,143.32417524367997,
Right_congruent,"(0.4, 0)",X,5,8,3,0,3,0,0,46,46,2,,,,,,,,,,,811.0584406999405,,812.0522862998769,812.2570210997947,812.2570210997947,812.2570210997947,5,1,0.35828029992990196,812.6210491999518,812.976578099886,,,,,,,,,,999,,,,,,2023-02-01_13h51.33.741,Exp_1_Simon_task,2022.2.4,999,143.32417524367997,
Right_congruent,"(0.4, 0)",X,5,8,3,0,3,0,0,47,47,50,,,,,,,,,,,813.1761663998477,814.1776535999961,814.1776535999961,814.3791104999837,814.3791104999837,814.3791104999837,5,1,0.569086000090465,814.9546426997986,815.307982499944,,,,,,,,,,999,,,,,,2023-02-01_13h51.33.741,Exp_1_Simon_task,2022.2.4,999,143.32417524367997,
Right_congruent,"(0.4, 0)",X,5,8,3,0,3,0,0,48,48,42,,,,,,,,,,,815.511247899849,816.5101269998122,816.5101269998122,816.7109195999801,816.7109195999801,816.7109195999801,5,1,0.4066657000221312,817.1253913999535,817.4751451998018,,,,,,,,,,999,,,,,,2023-02-01_13h51.33.741,Exp_1_Simon_task,2022.2.4,999,143.32417524367997,
Right_congruent,"(0.4, 0)",X,5,8,3,0,3,0,0,49,49,34,,,,,,,,,,,817.6775442999788,818.6770362998359,818.6770362998359,818.8779284998309,818.8779284998309,818.8779284998309,5,1,0.5890108000021428,819.4754600999877,819.8295312998816,,,,,,,,,,999,,,,,,2023-02-01_13h51.33.741,Exp_1_Simon_task,2022.2.4,999,143.32417524367997,
Right_congruent,"(0.4, 0)",X,5,8,3,0,3,0,0,50,50,10,,,,,,,,,,,820.0316920999903,821.0311038999353,821.0311038999353,821.2263397998177,821.2263397998177,821.2263397998177,5,1,0.7927316999994218,822.025198899908,822.3787878998555,,,,,,,,,,999,,,,,,2023-02-01_13h51.33.741,Exp_1_Simon_task,2022.2.4,999,143.32417524367997,
Left_congruent,"(-0.4, 0)",T,4,2,3,0,3,0,0,51,51,12,,,,,,,,,,,822.5790255998727,823.5787219000049,823.5787219000049,823.7812867998146,823.7812867998146,823.7812867998146,4,1,0.9172288998961449,824.7057367998641,825.0598544999957,,,,,,,,,,999,,,,,,2023-02-01_13h51.33.741,Exp_1_Simon_task,2022.2.4,999,143.32417524367997,
Left_incongruent,"(0.4, 0)",T,4,4,3,0,3,0,0,52,52,77,,,,,,,,,,,825.2594201997854,,826.2504448997788,826.4548631999642,826.4548631999642,826.4548631999642,4,1,0.652474100003019,827.1141072998289,827.4676653998904,826.4548631999642,,,,,,,,,999,,,,,,2023-02-01_13h51.33.741,Exp_1_Simon_task,2022.2.4,999,143.32417524367997,
Left_congruent,"(-0.4, 0)",T,4,2,3,0,3,0,0,53,53,4,,,,,,,,,,,827.6689347999636,828.6694840998389,828.6694840998389,828.8675080998801,828.8675080998801,828.8675080998801,4,1,0.3051765998825431,829.1808861999307,829.5369643999729,,829.5315502998419,,,,,,,,999,,,,,,2023-02-01_13h51.33.741,Exp_1_Simon_task,2022.2.4,999,143.32417524367997,
Right_incongruent,"(-0.4, 0)",X,5,16,3,0,3,0,0,54,54,31,,,,,,,,,,,829.7328190999106,830.7329514999874,830.7329514999874,830.932865699986,830.932865699986,830.932865699986,5,1,0.41819760017096996,831.357534899842,831.710995899979,,,,,,,,,,999,,,,,,2023-02-01_13h51.33.741,Exp_1_Simon_task,2022.2.4,999,143.32417524367997,
Left_congruent,"(-0.4, 0)",T,4,2,3,0,3,0,0,55,55,44,,,,,,,,,,,831.9119060998783,,832.906667899806,833.1076233999338,833.1076233999338,833.1076233999338,4,1,0.5276516999583691,833.6415142999031,833.9951604998205,833.1076233999338,833.9898064997979,,,,,,,,999,,,,,,2023-02-01_13h51.33.741,Exp_1_Simon_task,2022.2.4,999,143.32417524367997,
Right_congruent,"(0.4, 0)",X,5,8,3,0,3,0,0,56,56,74,,,,,,,,,,,834.2006228999235,,835.1912805999164,835.3922400998417,835.3922400998417,835.3922400998417,5,1,0.2569971999619156,835.6564820997883,836.0072690998204,835.3922400998417,,,,,,,,,999,,,,,,2023-02-01_13h51.33.741,Exp_1_Simon_task,2022.2.4,999,143.32417524367997,
Left_congruent,"(-0.4, 0)",T,4,2,3,0,3,0,0,57,57,68,,,,,,,,,,,836.2104275999591,837.2100612998474,837.2100612998474,837.4183914999012,837.4183914999012,837.4183914999012,4,1,0.31997359986416996,837.745487799868,838.0992946999613,,,,,,,,,,999,,,,,,2023-02-01_13h51.33.741,Exp_1_Simon_task,2022.2.4,999,143.32417524367997,
Right_congruent,"(0.4, 0)",X,5,8,3,0,3,0,0,58,58,18,,,,,,,,,,,838.300629099831,839.3009294997901,839.3009294997901,839.5059286998585,839.5059286998585,839.5059286998585,5,1,0.3606102999765426,839.8759548999369,840.2326961997896,,,,,,,,,,999,,,,,,2023-02-01_13h51.33.741,Exp_1_Simon_task,2022.2.4,999,143.32417524367997,
Left_congruent,"(-0.4, 0)",T,4,2,3,0,3,0,0,59,59,72,,,,,,,,,,,840.4279173999093,841.4259841998573,841.4259841998573,841.6270902999677,841.6270902999677,841.6270902999677,4,1,0.09794809995219111,841.730831899913,842.0869066999294,,842.0799080999568,,,,,,,,999,,,,,,2023-02-01_13h51.33.741,Exp_1_Simon_task,2022.2.4,999,143.32417524367997,
Right_congruent,"(0.4, 0)",X,5,8,3,0,3,0,0,60,60,78,,,,,,,,,,,842.2875514999032,843.2881690999493,843.2881690999493,843.4891486999113,843.4891486999113,843.4891486999113,5,1,0.2364467999432236,843.7324999999255,844.0850659999996,,,,,,,,,,999,,,,,,2023-02-01_13h51.33.741,Exp_1_Simon_task,2022.2.4,999,143.32417524367997,
Left_incongruent,"(0.4, 0)",T,4,4,3,0,3,0,0,61,61,29,,,,,,,,,,,844.2881446999963,845.2887708998751,845.2887708998751,845.4864319998305,845.4864319998305,845.4864319998305,4,1,0.6562693999148905,846.1486077997833,846.5020459999796,,,,,,,,,,999,,,,,,2023-02-01_13h51.33.741,Exp_1_Simon_task,2022.2.4,999,143.32417524367997,
